<Bundle xmlns="http://hl7.org/fhir"><id value="db26e8f2-5ae9-11e6-8b77-86f30ca893d3" /><meta><profile value="https://fhir.nhs.uk/StructureDefinition/adw-message-bundle-1" /></meta><type value="message" /><entry><resource><MessageHeader><id value="f30279eb-939c-4d46-804e-9a13fa7ce8a1" /><meta><profile value="https://fhir.nhs.uk/StructureDefinition/adw-assessment-notice-accept-response-message-header-1" /></meta><timestamp value="2016-07-25T12:30:00+00:00" /><event><system value="https://fhir.nhs.uk/ValueSet/adw-message-event-1" /><code value="975711000000108" /></event><response><identifier value="5bfa2a2e-923b-440d-82d6-38e24b666be6" /><code value="ok" /></response><source><name value="Local Authority Sending System" /><endpoint value="urn:nhs-uk:addressing:ods:V396BB" /></source><destination><name value="Hospital Receiving System" /><endpoint value="urn:nhs-uk:addressing:ods:RFM8C2" /></destination><author><reference value="Practitioner/9255f4e3-d65d-4b96-8b8e-586e9f8e9828" /></author><receiver><reference value="Practitioner/5295add6-6fc3-47aa-ad4a-4dc14911154d" /></receiver><responsible><reference value="Organization/f4f89d27-8e5e-44a3-95d2-e3301b7d1420" /></responsible><reason><coding><system value="https://fhir.nhs.uk/ValueSet/adw-assessment-notice-accept-reason-1" /><code value="OFT" /><display value="Other - Free Text" /></coding><text value="Referred patient." /></reason><data><reference value="ReferralRequest/ae745610-e3c4-4a8c-b321-830b9d624f51" /></data></MessageHeader></resource></entry><entry><resource><ReferralRequest><id value="ae745610-e3c4-4a8c-b321-830b9d624f51" /><meta><profile value="https://fhir.nhs.uk/StructureDefinition/adw-referral-request-accepted-1" /></meta><status value="accepted" /><identifier><value value="311fcae7-32a7-4a8e-a15c-eebae3a246b9" /></identifier><patient><reference value="Patient/feda987e-c482-4c27-9d2a-943fdf6b3714" /></patient><requester><reference value="Practitioner/5295add6-6fc3-47aa-ad4a-4dc14911154d" /></requester><recipient><reference value="Organization/bb8d8c2b-30f8-4567-83aa-e127a16c5122" /></recipient><encounter><reference value="Encounter/1dc3c1fc-9b5a-433e-849a-fc2a78640caf" /></encounter></ReferralRequest></resource></entry><entry><resource><Patient><id value="feda987e-c482-4c27-9d2a-943fdf6b3714" /><meta><profile value="https://fhir.hl7.org.uk/StructureDefinition/CareConnect-Patient-1" /></meta><identifier><system value="https://fhir.nhs.uk/Id/nhs-number" /><value value="9413946000" /></identifier><identifier><system value="https://fhir.nhs.uk/Id/local-patient-identifier" /><value value="A1234521" /><assigner><reference value="Organization/e3453363-1887-4b98-a12b-60f5852e0a2b" /></assigner></identifier><name><use value="usual" /><family value="Jones" /><given value="Barry" /></name><gender value="male" /><birthDate value="1941-11-01" /></Patient></resource></entry><entry><resource><Practitioner><id value="5295add6-6fc3-47aa-ad4a-4dc14911154d" /><meta><profile value="https://fhir.hl7.org.uk/StructureDefinition/CareConnect-Practitioner-1" /></meta><name><family value="Gulliver" /><given value="Leticia" /></name><telecom><system value="email" /><value value="leticia.gulliver@nhs.net" /></telecom><telecom><system value="phone" /><value value="0191223344" /></telecom><practitionerRole><managingOrganization><reference value="Organization/e3453363-1887-4b98-a12b-60f5852e0a2b" /></managingOrganization><role><coding><system value="https://fhir.nhs.uk/ValueSet/job-role-name-1" /><code value="NR2060" /><display value="Discharge coordinator" /></coding><text value="Hospital Liaison" /></role></practitionerRole></Practitioner></resource></entry><entry><resource><Practitioner><id value="9255f4e3-d65d-4b96-8b8e-586e9f8e9828" /><meta><profile value="https://fhir.hl7.org.uk/StructureDefinition/CareConnect-Practitioner-1" /></meta><name><family value="Jones" /><given value="Lee" /></name><telecom><system value="email" /><value value="lee.jones@nhs.net" /></telecom><telecom><system value="phone" /><value value="0191223888" /></telecom><practitionerRole><managingOrganization><reference value="Organization/bb8d8c2b-30f8-4567-83aa-e127a16c5122" /></managingOrganization><role><coding><system value="https://fhir.nhs.uk/ValueSet/job-role-name-1" /><code value="NR1340" /><display value="Approved Social Worker" /></coding><text value="Local Authority Contact" /></role></practitionerRole></Practitioner></resource></entry><entry><resource><Organization><id value="e3453363-1887-4b98-a12b-60f5852e0a2b" /><meta><profile value="https://fhir.hl7.org.uk/StructureDefinition/CareConnect-Organization-1" /></meta><identifier><system value="https://fhir.nhs.uk/Id/ods-organization-code" /><value value="RFM8C2" /></identifier><type><coding><system value="http://hl7.org/fhir/ValueSet/organization-type" /><code value="prov" /><display value="Healthcare Provider" /></coding><text value="Hospital" /></type><name value="Hebburn Hospital" /></Organization></resource></entry><entry><resource><Organization><id value="f4f89d27-8e5e-44a3-95d2-e3301b7d1420" /><meta><profile value="https://fhir.hl7.org.uk/StructureDefinition/CareConnect-Organization-1" /></meta><identifier><system value="https://fhir.nhs.uk/Id/ods-organization-code" /><value value="V396BB" /></identifier><type><coding><system value="http://hl7.org/fhir/ValueSet/organization-type" /><code value="govt" /><display value="Government" /></coding><text value="Local Authority" /></type><name value="Hebburn Council" /></Organization></resource></entry><entry><resource><Organization><id value="bb8d8c2b-30f8-4567-83aa-e127a16c5122" /><meta><profile value="https://fhir.hl7.org.uk/StructureDefinition/CareConnect-Organization-1" /></meta><type><coding><system value="http://hl7.org/fhir/ValueSet/organization-type" /><code value="team" /><display value="Organizational team" /></coding><text value="Local Authority Social Services' Team" /></type><name value="Hebburn Social Services' Community Team" /><partOf><reference value="Organization/f4f89d27-8e5e-44a3-95d2-e3301b7d1420" /></partOf></Organization></resource></entry><entry><resource><Encounter><id value="1dc3c1fc-9b5a-433e-849a-fc2a78640caf" /><meta><profile value="https://fhir.nhs.uk/StructureDefinition/CareConnect-ADW-Encounter-1" /></meta><identifier><value value="2562b8b6-c0db-424a-8c6b-0fa43b0d6c2f" /></identifier><status value="in-progress" /><class value="inpatient" /><patient><reference value="Patient/feda987e-c482-4c27-9d2a-943fdf6b3714" /></patient><location><location><reference value="Location/24ff27b4-d2f4-4a3c-9858-b8d37dd3abeb" /></location></location><serviceProvider><reference value="Organization/e3453363-1887-4b98-a12b-60f5852e0a2b" /></serviceProvider></Encounter></resource></entry><entry><resource><Location><id value="24ff27b4-d2f4-4a3c-9858-b8d37dd3abeb" /><meta><profile value="https://fhir.hl7.org.uk/StructureDefinition/CareConnect-Location-1" /></meta><name value="Collier Ward" /><managingOrganization><reference value="Organization/e3453363-1887-4b98-a12b-60f5852e0a2b" /></managingOrganization></Location></resource></entry></Bundle>