<Bundle xmlns="http://hl7.org/fhir"><id value="152af7c4-5af8-11e6-8b77-86f30ca893d3" /><meta><profile value="https://fhir.nhs.uk/StructureDefinition/adw-message-bundle-1" /></meta><type value="message" /><entry><fullUrl value="urn:uuid:2e46de3a-4457-4a29-9cd0-a3cdcf9883bf" /><resource><MessageHeader><id value="2e46de3a-4457-4a29-9cd0-a3cdcf9883bf" /><meta><profile value="https://fhir.nhs.uk/StructureDefinition/adw-discharge-notice-reject-response-message-header-1" /></meta><timestamp value="2017-05-05T15:13:33+00:00" /><event><system value="http://snomed.info/sct" /><code value="975831000000106" /></event><response><identifier value="19db5f65-1bad-4ce1-be05-92ff79ab1c8f" /><code value="ok" /></response><source><endpoint value="urn:nhs-uk:addressing:ods:V396BB" /></source><destination><endpoint value="urn:nhs-uk:addressing:ods:RFM8C2" /></destination><author><reference value="urn:uuid:94e5730d-b8b9-4f78-a6c4-35137c88e6e5" /></author><receiver><reference value="urn:uuid:06321ef3-3ca9-44ec-b985-7eada342dac5" /></receiver><responsible><reference value="urn:uuid:c6ee16d3-24fa-4455-96f2-0ba54508798a" /></responsible><reason><coding><system value="https://fhir.nhs.uk/adw-notice-reject-reason-1" /><code value="OFT" /><display value="Other - Free Text" /></coding><text value="Social Services cannot confirm agreement to the discharge date as the assessment process has not been completed." /></reason><data><reference value="urn:uuid:f150da96-9250-4ba2-9474-807a497974a9" /></data></MessageHeader></resource></entry><entry><fullUrl value="urn:uuid:f150da96-9250-4ba2-9474-807a497974a9" /><resource><ReferralRequest><id value="f150da96-9250-4ba2-9474-807a497974a9" /><meta><profile value="https://fhir.nhs.uk/StructureDefinition/adw-referral-request-rejected-1" /></meta><status value="rejected" /><identifier><value value="311fcae7-32a7-4a8e-a15c-eebae3a246b9" /></identifier><patient><reference value="urn:uuid:a1e2525a-08ee-4ece-8a76-426c245a119a" /></patient><requester><reference value="urn:uuid:06321ef3-3ca9-44ec-b985-7eada342dac5" /></requester><recipient><reference value="urn:uuid:dc13a843-45a6-4b18-b2c3-043f215eadff" /></recipient><encounter><reference value="urn:uuid:977b5213-6597-4e0c-8c8e-2ba6140db8f6" /></encounter></ReferralRequest></resource></entry><entry><fullUrl value="urn:uuid:977b5213-6597-4e0c-8c8e-2ba6140db8f6" /><resource><Encounter><id value="977b5213-6597-4e0c-8c8e-2ba6140db8f6" /><meta><profile value="https://fhir.nhs.uk/StructureDefinition/CareConnect-ADW-Encounter-1" /></meta><identifier><system value="https://fhir.nhs.uk/encounter-id" /><value value="2562b8b6-c0db-424a-8c6b-0fa43b0d6c2f" /></identifier><status value="in-progress" /><class value="inpatient" /><priority><coding><system value="https://fhir.nhs.uk/adw-admission-type-1" /><code value="E" /><display value="Emergency" /></coding></priority><patient><reference value="urn:uuid:a1e2525a-08ee-4ece-8a76-426c245a119a" /></patient><location><location><reference value="urn:uuid:48a8cd66-66b5-4022-b067-fb7410313b81" /></location></location><serviceProvider><reference value="urn:uuid:f20a9596-f8b5-441a-acda-9c923253f3f3" /></serviceProvider></Encounter></resource></entry><entry><fullUrl value="urn:uuid:a1e2525a-08ee-4ece-8a76-426c245a119a" /><resource><Patient><id value="a1e2525a-08ee-4ece-8a76-426c245a119a" /><meta><profile value="https://fhir.hl7.org.uk/StructureDefinition/CareConnect-Patient-1" /></meta><identifier><extension url="https://fhir.hl7.org.uk/StructureDefinition/Extension-CareConnect-NHSNumberVerificationStatus-1"><valueCodeableConcept><coding><system value="https://fhir.hl7.org.uk/CareConnect-NHSNumberVerificationStatus-1" /><code value="01" /><display value="Number present and verified" /></coding></valueCodeableConcept></extension><system value="https://fhir.nhs.uk/Id/nhs-number" /><value value="9413946000" /></identifier><identifier><system value="https://fhir.nhs.uk/Id/local-patient-identifier" /><value value="A1234521" /><assigner><reference value="urn:uuid:f20a9596-f8b5-441a-acda-9c923253f3f3" /></assigner></identifier><name><use value="usual" /><family value="Jones" /><given value="Barry" /></name><gender value="male" /><birthDate value="1941-11-01" /></Patient></resource></entry><entry><fullUrl value="urn:uuid:06321ef3-3ca9-44ec-b985-7eada342dac5" /><resource><Practitioner><id value="06321ef3-3ca9-44ec-b985-7eada342dac5" /><meta><profile value="https://fhir.nhs.uk/StructureDefinition/CareConnect-ADW-Practitioner-1" /></meta><name><family value="Gulliver" /><given value="Leticia" /></name><telecom><system value="email" /><value value="leticia.gulliver@nhs.net" /></telecom><telecom><system value="phone" /><value value="01911223344" /></telecom><practitionerRole><managingOrganization><reference value="urn:uuid:f20a9596-f8b5-441a-acda-9c923253f3f3" /></managingOrganization><role><coding><system value="https://fhir.nhs.uk/job-role-name-1" /><code value="NR2060" /><display value="Discharge coordinator" /></coding></role></practitionerRole></Practitioner></resource></entry><entry><fullUrl value="urn:uuid:94e5730d-b8b9-4f78-a6c4-35137c88e6e5" /><resource><Practitioner><id value="94e5730d-b8b9-4f78-a6c4-35137c88e6e5" /><meta><profile value="https://fhir.nhs.uk/StructureDefinition/CareConnect-ADW-Practitioner-1" /></meta><name><family value="Jones" /><given value="Lee" /></name><telecom><system value="email" /><value value="lee.jones@nhs.net" /></telecom><telecom><system value="phone" /><value value="0191223888" /></telecom><practitionerRole><managingOrganization><reference value="urn:uuid:dc13a843-45a6-4b18-b2c3-043f215eadff" /></managingOrganization><role><coding><system value="https://fhir.nhs.uk/job-role-name-1" /><code value="NR1340" /><display value="Approved Social Worker" /></coding></role></practitionerRole></Practitioner></resource></entry><entry><fullUrl value="urn:uuid:f20a9596-f8b5-441a-acda-9c923253f3f3" /><resource><Organization><id value="f20a9596-f8b5-441a-acda-9c923253f3f3" /><meta><profile value="https://fhir.hl7.org.uk/StructureDefinition/CareConnect-Organization-1" /></meta><identifier><system value="https://fhir.nhs.uk/Id/ods-site-code" /><value value="RFM8C2" /></identifier><type><coding><system value="http://hl7.org/fhir/organization-type" /><code value="prov" /><display value="Healthcare Provider" /></coding></type><name value="Hebburn Hospital" /></Organization></resource></entry><entry><fullUrl value="urn:uuid:c6ee16d3-24fa-4455-96f2-0ba54508798a" /><resource><Organization><id value="c6ee16d3-24fa-4455-96f2-0ba54508798a" /><meta><profile value="https://fhir.hl7.org.uk/StructureDefinition/CareConnect-Organization-1" /></meta><identifier><system value="https://fhir.nhs.uk/Id/ods-organization-code" /><value value="V396BB" /></identifier><type><coding><system value="http://hl7.org/fhir/organization-type" /><code value="govt" /><display value="Government" /></coding></type><name value="Hebburn Council" /></Organization></resource></entry><entry><fullUrl value="urn:uuid:dc13a843-45a6-4b18-b2c3-043f215eadff" /><resource><Organization><id value="dc13a843-45a6-4b18-b2c3-043f215eadff" /><meta><profile value="https://fhir.hl7.org.uk/StructureDefinition/CareConnect-Organization-1" /></meta><type><coding><system value="http://hl7.org/fhir/organization-type" /><code value="team" /><display value="Organizational team" /></coding></type><name value="Hebburn Social Services' Community Team" /><partOf><reference value="urn:uuid:c6ee16d3-24fa-4455-96f2-0ba54508798a" /></partOf></Organization></resource></entry><entry><fullUrl value="urn:uuid:48a8cd66-66b5-4022-b067-fb7410313b81" /><resource><Location><id value="48a8cd66-66b5-4022-b067-fb7410313b81" /><meta><profile value="https://fhir.hl7.org.uk/StructureDefinition/CareConnect-Location-1" /></meta><name value="Collier Ward" /><managingOrganization><reference value="urn:uuid:f20a9596-f8b5-441a-acda-9c923253f3f3" /></managingOrganization></Location></resource></entry></Bundle>