<?xml version="1.0" encoding="UTF-8"?>
<!--Bundle xml example-->
<Bundle xmlns="http://hl7.org/fhir" xmlns:xsi="http://www.w3.org/2001/XMLSchema-instance" xsi:schemaLocation="http://hl7.org/fhir ../../Schemas/bundle.xsd">
	<id value="a63ec43d-887f-477d-b461-80dbbb139fc6"/>
	<meta>
		<profile value="https://fhir.nhs.uk/StructureDefinition/adw-message-bundle-1"/>
	</meta>
	<type value="message"/>
	<entry>
		<fullUrl value="urn:uuid:19db5f65-1bad-4ce1-be05-92ff79ab1c8f"/>
		<resource>
			<MessageHeader>
				<id value="19db5f65-1bad-4ce1-be05-92ff79ab1c8f"/>
				<meta>
					<profile value="https://fhir.nhs.uk/StructureDefinition/adw-discharge-notice-message-header-1"/>
				</meta>
				<timestamp value="2017-05-04T15:11:42+00:00"/>
				<event>
					<system value="http://snomed.info/sct"/>
					<code value="975731000000100"/>
				</event>
				<source>
					<endpoint value="urn:nhs-uk:addressing:ods:RFM8C2"/>
				</source>
				<destination>
					<endpoint value="urn:nhs-uk:addressing:ods:V396BB"/>
				</destination>
				<author>
					<!-- Hospital Liaison -->
					<reference value="urn:uuid:51742f1b-c5ee-435e-8dc7-9bc5a578cd1d">
					</reference>
				</author>
				<!-- Local Authority Social Services' community team -->
				<receiver>
					<reference value="urn:uuid:5d4c7a93-73f1-460e-93d3-da616b569228"/>
				</receiver>
				<!-- Lead Clinician -->
				<responsible>
					<reference value="urn:uuid:62f20483-3d47-4e57-80e1-6c0e20fe272f"/>
				</responsible>
				<data>
					<reference value="urn:uuid:8a31c448-223d-42b7-9a17-3898f0c1c143"/>
				</data>
			</MessageHeader>
		</resource>
	</entry>
	<entry>
		<fullUrl value="urn:uuid:8a31c448-223d-42b7-9a17-3898f0c1c143"/>
		<resource>
			<ReferralRequest>
				<id value="8a31c448-223d-42b7-9a17-3898f0c1c143"/>
				<meta>
					<profile value="https://fhir.nhs.uk/StructureDefinition/adw-discharge-referral-request-1"/>
					<!--This is taken from the url value of https://fhir.nhs.uk/StructureDefinition/adw-referral-request-1 found in the profile-->
				</meta>
				<status value="requested"/>
				<identifier>
					<value value="311fcae7-32a7-4a8e-a15c-eebae3a246b9"/>
					<!--The value of this identifier will be the same across all referrals to tie all these together-->
				</identifier>
				<patient>
					<reference value="urn:uuid:42840151-1fe1-4967-88c1-bcbd2a191243"/>
				</patient>
				<!-- Hospital Liaison, a hospital Discharge Co-ordinator -->
				<requester>
					<reference value="urn:uuid:51742f1b-c5ee-435e-8dc7-9bc5a578cd1d">
					</reference>
				</requester>
				<!-- Local Authority Social Services team-->
				<recipient>
					<reference value="urn:uuid:5d4c7a93-73f1-460e-93d3-da616b569228"/>
				</recipient>
				<encounter>
					<reference value="urn:uuid:9abe04e9-c508-492c-94fc-349d34b85bd5"/>
				</encounter>
				<supportingInformation>
					<reference value="urn:uuid:59d6a0e5-5ca1-4ab1-ac65-3790a3bee8e5"/>
				</supportingInformation>
				<supportingInformation>
					<reference value="urn:uuid:286919ac-12ba-4469-b9fd-676ef9cdb623"/>
				</supportingInformation>
			</ReferralRequest>
		</resource>
	</entry>
	<entry>
		<fullUrl value="urn:uuid:9abe04e9-c508-492c-94fc-349d34b85bd5"/>
		<resource>
			<Encounter>
				<id value="9abe04e9-c508-492c-94fc-349d34b85bd5"/>
				<meta>
					<profile value="https://fhir.nhs.uk/StructureDefinition/adw-discharge-encounter-1"/>
				</meta>
				<identifier>
					<system value="https://fhir.nhs.uk/encounter-id"/>
					<!--Same encounter ID for all encounters across all messages-->
					<value value="2562b8b6-c0db-424a-8c6b-0fa43b0d6c2f"/>
				</identifier>
				<status value="in-progress"/>
				<class value="inpatient"/>
				<patient>
					<reference value="urn:uuid:42840151-1fe1-4967-88c1-bcbd2a191243"/>
				</patient>
				<period>
					<start value="2017-04-24"/>
					<!--Proposed discharge date-->
					<end value="2017-05-06"/>
				</period>
				<location>
					<location>
						<reference value="urn:uuid:64a7a96b-a259-4b39-b50a-ea36e2a0464c"/>
					</location>
				</location>
				<serviceProvider>
					<reference value="urn:uuid:c7bf094c-6581-4771-bafc-88c58e7d8fcd"/>
				</serviceProvider>
			</Encounter>
		</resource>
	</entry>
	<entry>
		<fullUrl value="urn:uuid:42840151-1fe1-4967-88c1-bcbd2a191243"/>
		<resource>
			<Patient>
				<id value="42840151-1fe1-4967-88c1-bcbd2a191243"/>
				<!--Identifies the profile being used-->
				<meta>
					<profile value="https://fhir.hl7.org.uk/StructureDefinition/CareConnect-Patient-1"/>
				</meta>
				<!--Primary patient identifier i.e. NHS number and code to indicate it's been verified-->
				<identifier>
					<extension url="https://fhir.hl7.org.uk/StructureDefinition/Extension-CareConnect-NHSNumberVerificationStatus-1">
						<valueCodeableConcept>
							<coding>
								<system value="https://fhir.hl7.org.uk/CareConnect-NHSNumberVerificationStatus-1"/>
								<code value="01"/>
								<display value="Number present and verified"/>
							</coding>
						</valueCodeableConcept>
					</extension>
					<system value="https://fhir.nhs.uk/Id/nhs-number"/>
					<value value="9413946000"/>
				</identifier>
				<identifier>
					<system value="https://fhir.nhs.uk/Id/local-patient-identifier"/>
					<value value="A1234521"/>
					<assigner>
						<!-- This can be a reference to the profile elsewhere in the message or just text -->
						<reference value="urn:uuid:c7bf094c-6581-4771-bafc-88c58e7d8fcd"/>
					</assigner>
				</identifier>
				<name>
					<use value="usual"/>
					<family value="Jones"/>
					<given value="Barry"/>
				</name>
				<gender value="male"/>
				<birthDate value="1941-11-01"/>
				<address>
					<!-- Structured address-->
					<line value="The Old Lodge"/>
					<line value="1 Little Street"/>
					<line value="Chapeltown"/>
					<city value="Leeds"/>
					<district value="West Yorkshire"/>
					<postalCode value="LS6 1UR"/>
				</address>
				<!-- Patients NOK contact -->
				<contact>
					<relationship>
						<coding>
							<system value="https://fhir.hl7.org.uk/CareConnect-PersonRelationshipType-1"/>
							<code value="20"/>
							<display value="Carer"/>
						</coding>
					</relationship>
					<name>
						<family value="Bloom"/>
						<given value="Sandra"/>
					</name>
					<telecom>
						<system value="email"/>
						<value value="Sbloom123@yahoo.com"/>
					</telecom>
					<telecom>
						<system value="phone"/>
						<value value="0113237656"/>
					</telecom>
				</contact>
			</Patient>
		</resource>
	</entry>
	<entry>
		<fullUrl value="urn:uuid:51742f1b-c5ee-435e-8dc7-9bc5a578cd1d"/>
		<resource>
			<!--A hospital Discharge Co-ordinator-->
			<Practitioner>
				<id value="51742f1b-c5ee-435e-8dc7-9bc5a578cd1d"/>
				<meta>
					<!--Identifies the profile being used-->
					<profile value="https://fhir.hl7.org.uk/StructureDefinition/CareConnect-ADW-Practitioner-1"/>
				</meta>
				<name>
					<family value="Gulliver"/>
					<given value="Leticia"/>
				</name>
				<telecom>
					<system value="email"/>
					<value value="leticia.gulliver@nhs.net"/>
				</telecom>
				<telecom>
					<system value="phone"/>
					<value value="01911223344"/>
				</telecom>
				<practitionerRole>
					<managingOrganization>
						<reference value="urn:uuid:c7bf094c-6581-4771-bafc-88c58e7d8fcd"/>
					</managingOrganization>
					<!-- Indicates the practitioner's role(s) i.e. Discharge co-ordinator-->
					<role>
						<coding>
							<system value="https://fhir.nhs.uk/job-role-name-1"/>
							<code value="NR2060"/>
							<display value="Discharge coordinator"/>
						</coding>
					</role>
				</practitionerRole>
			</Practitioner>
		</resource>
	</entry>
	<entry>
		<fullUrl value="urn:uuid:62f20483-3d47-4e57-80e1-6c0e20fe272f"/>
		<resource>
			<Practitioner>
				<id value="62f20483-3d47-4e57-80e1-6c0e20fe272f"/>
				<meta>
					<!--Identifies the profile being used-->
					<profile value="https://fhir.hl7.org.uk/StructureDefinition/CareConnect-ADW-Practitioner-1"/>
				</meta>
				<name>
					<family value="Stibbs"/>
					<given value="Nigel"/>
				</name>
				<practitionerRole>
					<managingOrganization>
						<reference value="urn:uuid:c7bf094c-6581-4771-bafc-88c58e7d8fcd"/>
					</managingOrganization>
					<!-- Indicates the practitioners role(s)-->
					<role>
						<coding>
							<system value="https://fhir.nhs.uk/job-role-name-1"/>
							<code value="NR0050"/>
							<display value="Consultant"/>
						</coding>
					</role>
				</practitionerRole>
			</Practitioner>
		</resource>
	</entry>
	<entry>
		<fullUrl value="urn:uuid:c7bf094c-6581-4771-bafc-88c58e7d8fcd"/>
		<resource>
			<!--This example shows a sample NHS hospital.-->
			<Organization>
				<id value="c7bf094c-6581-4771-bafc-88c58e7d8fcd"/>
				<meta>
					<!--Identifies the profile being used-->
					<profile value="https://fhir.hl7.org.uk/StructureDefinition/CareConnect-Organization-1"/>
				</meta>
				<!--Organisation identifier -->
				<identifier>
					<system value="https://fhir.nhs.uk/Id/ods-site-code"/>
					<value value="RFM8C2"/>
				</identifier>
				<!-- Type of organisation. -->
				<type>
					<coding>
						<system value="http://hl7.org/fhir/organization-type"/>
						<code value="prov"/>
						<display value="Healthcare Provider"/>
					</coding>
				</type>
				<name value="Hebburn Hospital"/>
			</Organization>
		</resource>
	</entry>
	<entry>
		<fullUrl value="urn:uuid:37f35527-5169-4467-b6ad-ab147928714c"/>
		<resource>
			<!--This example shows a sample Local Authority-->
			<Organization>
				<id value="37f35527-5169-4467-b6ad-ab147928714c"/>
				<meta>
					<!--Identifies the profile being used-->
					<profile value="https://fhir.hl7.org.uk/StructureDefinition/CareConnect-Organization-1"/>
				</meta>
				<!--Organisation identifier-->
				<identifier>
					<system value="https://fhir.nhs.uk/Id/ods-organization-code"/>
					<value value="V396BB"/>
				</identifier>
				<!-- Type of organisation. -->
				<type>
					<coding>
						<system value="http://hl7.org/fhir/organization-type"/>
						<code value="govt"/>
						<display value="Government"/>
					</coding>
				</type>
				<name value="Hebburn Council"/>
			</Organization>
		</resource>
	</entry>
	<entry>
		<fullUrl value="urn:uuid:5d4c7a93-73f1-460e-93d3-da616b569228"/>
		<resource>
			<!--This example shows a sample Local Authority Social Services team.-->
			<Organization>
				<id value="5d4c7a93-73f1-460e-93d3-da616b569228"/>
				<meta>
					<!--Identifies the profile being used-->
					<profile value="https://fhir.hl7.org.uk/StructureDefinition/CareConnect-Organization-1"/>
				</meta>
				<!-- Type of organisation. -->
				<type>
					<coding>
						<system value="http://hl7.org/fhir/organization-type"/>
						<code value="team"/>
						<display value="Organizational team"/>
					</coding>
				</type>
				<name value="Hebburn Social Services' Community Team"/>
				<partOf>
					<reference value="urn:uuid:37f35527-5169-4467-b6ad-ab147928714c"/>
				</partOf>
			</Organization>
		</resource>
	</entry>
	<entry>
		<fullUrl value="urn:uuid:64a7a96b-a259-4b39-b50a-ea36e2a0464c"/>
		<resource>
			<Location>
				<id value="64a7a96b-a259-4b39-b50a-ea36e2a0464c"/>
				<meta>
					<!--Identifies the profile being used-->
					<profile value="https://fhir.hl7.org.uk/StructureDefinition/CareConnect-Location-1"/>
				</meta>
				<name value="Collier Ward"/>
				<managingOrganization>
					<reference value="urn:uuid:c7bf094c-6581-4771-bafc-88c58e7d8fcd"/>
				</managingOrganization>
			</Location>
		</resource>
	</entry>
	<entry>
		<fullUrl value="urn:uuid:59d6a0e5-5ca1-4ab1-ac65-3790a3bee8e5"/>
		<resource>
			<QuestionnaireResponse>
				<id value="59d6a0e5-5ca1-4ab1-ac65-3790a3bee8e5"/>
				<meta>
					<!--Identifies the profile being used-->
					<profile value="https://fhir.nhs.uk/StructureDefinition/adw-discharge-questionnaire-response-1"/>
				</meta>
				<identifier>
					<value value="fd60ffd5-3e41-4b68-aa62-37f5407d8c03"/>
				</identifier>
				<status value="completed"/>
				<author>
					<reference value="urn:uuid:51742f1b-c5ee-435e-8dc7-9bc5a578cd1d">
					</reference>
				</author>
				<group>
					<question>
						<text value="Has the patient been consulted regarding the proposed discharge date?"/>
						<answer>
							<valueCoding>
								<system value="https://fhir.nhs.uk/adw-consultation-status-1"/>
								<code value="Y"/>
								<display value="Yes"/>
							</valueCoding>
						</answer>
					</question>
					<question>
						<text value="Has the patient's carer (if applicable) been consulted regarding the proposed discharge date?"/>
						<answer>
							<valueCoding>
								<system value="https://fhir.nhs.uk/adw-carerconsultation-status-1"/>
								<code value="Y"/>
								<display value="Yes"/>
							</valueCoding>
						</answer>
					</question>
				</group>
			</QuestionnaireResponse>
		</resource>
	</entry>
	<entry>
		<fullUrl value="urn:uuid:83ef1145-a95a-4bc3-a0bd-0ac2a09d1c1a"/>
		<resource>
			<Bundle>
				<id value="83ef1145-a95a-4bc3-a0bd-0ac2a09d1c1a"/>
				<meta>
					<profile value="https://fhir.nhs.uk/StructureDefinition/cofe-document-bundle-1"/>
				</meta>
				<type value="document"/>
				<entry>
					<fullUrl value="urn:uuid:286919ac-12ba-4469-b9fd-676ef9cdb623"/>
					<resource>
						<DocumentReference>
							<id value="286919ac-12ba-4469-b9fd-676ef9cdb623"/>
							<meta>
								<profile value="https://fhir.nhs.uk/StructureDefinition/cofe-documentreference-1"/>
							</meta>
							<!-- Information Recipient 1 -->
							<extension url="https://fhir.nhs.uk/StructureDefinition/extension-cofe-information-recipient-1">
								<!--Social Services team recipient-->
								<valueReference>
									<reference value="urn:uuid:f7ae2cda-28fe-4a65-af46-b2ef1c5593cc"/>
								</valueReference>
							</extension>
							<!--Care setting from which the document originated from-->
							<extension url="https://fhir.nhs.uk/StructureDefinition/extension-cofe-care-setting-type-1">
								<valueCodeableConcept>
									<coding>
										<system value="http://snomed.info/sct"/>
										<code value="408458006"/>
										<display value="Specialist multidisciplinary team (qualifier value)"/>
									</coding>
								</valueCodeableConcept>
							</extension>
							<subject>
								<reference value="urn:uuid:ce6d1ce3-7b26-4610-9e4a-43a0f5491a18"/>
							</subject>
							<!--Document type-->
							<type>
								<coding>
									<system value="http://snomed.info/sct"/>
									<code value="820101000000109"/>
									<display value="Social services assessment record (record artifact)"/>
								</coding>
							</type>
							<!--Discharge Co-ordinator author-->
							<author>
								<reference value="urn:uuid:c6269f37-f98b-40e8-893e-a149a94473ba"/>
							</author>
							<!--Hospital-->
							<custodian>
								<reference value="urn:uuid:4b708a70-ef5c-414f-bad3-9f02f19a9241"/>
							</custodian>
							<indexed value="2017-04-17T10:00:00+00:00"/>
							<status value="current"/>
							<docStatus>
								<coding>
									<system value="http://hl7.org/fhir/composition-status"/>
									<code value="final"/>
								</coding>
							</docStatus>
							<content>
								<attachment>
									<url value="urn:uuid:11507dfa-a3a2-4c6f-9ef7-9bc77955daae"/>
								</attachment>
							</content>
						</DocumentReference>
					</resource>
				</entry>
				<entry>
					<fullUrl value="urn:uuid:f7ae2cda-28fe-4a65-af46-b2ef1c5593cc"/>
					<resource>
						<!--This example shows a sample Local Authority Social Services team as a recipient of the document.-->
						<Organization>
							<id value="f7ae2cda-28fe-4a65-af46-b2ef1c5593cc"/>
							<meta>
								<!--Identifies the profile being used-->
								<profile value="https://fhir.hl7.org.uk/StructureDefinition/CareConnect-Organization-1"/>
							</meta>
							<!-- Type of organisation. -->
							<type>
								<coding>
									<system value="http://hl7.org/fhir/organization-type"/>
									<code value="team"/>
									<display value="Organizational team"/>
								</coding>
							</type>
							<name value="Hebburn Social Services' Community Team"/>
						</Organization>
					</resource>
				</entry>
				<entry>
					<fullUrl value="urn:uuid:ce6d1ce3-7b26-4610-9e4a-43a0f5491a18"/>
					<resource>
						<!--The patient as the subject of the document.-->
						<Patient>
							<id value="ce6d1ce3-7b26-4610-9e4a-43a0f5491a18"/>
							<!--Identifies the profile being used-->
							<meta>
								<profile value="https://fhir.hl7.org.uk/StructureDefinition/CareConnect-Patient-1"/>
							</meta>
							<!--Primary patient identifier i.e. NHS number and code to indicate it's been verified-->
							<identifier>
								<extension url="https://fhir.hl7.org.uk/StructureDefinition/Extension-CareConnect-NHSNumberVerificationStatus-1">
									<valueCodeableConcept>
										<coding>
											<system value="https://fhir.hl7.org.uk/CareConnect-NHSNumberVerificationStatus-1"/>
											<code value="01"/>
											<display value="Number present and verified"/>
										</coding>
									</valueCodeableConcept>
								</extension>
								<system value="https://fhir.nhs.uk/Id/nhs-number"/>
								<value value="9413946000"/>
							</identifier>
							<identifier>
								<system value="https://fhir.nhs.uk/Id/local-patient-identifier"/>
								<value value="A1234521"/>
							</identifier>
							<name>
								<use value="usual"/>
								<family value="Jones"/>
								<given value="Barry"/>
							</name>
							<gender value="male"/>
							<birthDate value="1941-11-01"/>
							<address>
								<!-- Structured address-->
								<line value="The Old Lodge"/>
								<line value="1 Little Street"/>
								<line value="Chapeltown"/>
								<city value="Leeds"/>
								<district value="West Yorkshire"/>
								<postalCode value="LS6 1UR"/>
							</address>
						</Patient>
					</resource>
				</entry>
				<entry>
					<fullUrl value="urn:uuid:c6269f37-f98b-40e8-893e-a149a94473ba"/>
					<resource>
						<!--A hospital Discharge Co-ordinator as the author of the document.-->
						<Practitioner>
							<id value="c6269f37-f98b-40e8-893e-a149a94473ba"/>
							<meta>
								<!--Identifies the profile being used-->
								<profile value="https://fhir.hl7.org.uk/StructureDefinition/CareConnect-Practitioner-1"/>
							</meta>
							<name>
								<family value="Gulliver"/>
								<given value="Leticia"/>
							</name>
							<telecom>
								<system value="email"/>
								<value value="leticia.gulliver@nhs.net"/>
							</telecom>
							<telecom>
								<system value="phone"/>
								<value value="01911223344"/>
							</telecom>
							<practitionerRole>
								<!-- Indicates the practitioner's role(s) i.e. Discharge co-ordinator-->
								<role>
									<text value="Discharge co-ordinator"/>
								</role>
							</practitionerRole>
						</Practitioner>
					</resource>
				</entry>
				<entry>
					<fullUrl value="urn:uuid:4b708a70-ef5c-414f-bad3-9f02f19a9241"/>
					<resource>
						<!--This example shows a sample NHS hospital as the custodian of the document.-->
						<Organization>
							<id value="4b708a70-ef5c-414f-bad3-9f02f19a9241"/>
							<meta>
								<!--Identifies the profile being used-->
								<profile value="https://fhir.hl7.org.uk/StructureDefinition/CareConnect-Organization-1"/>
							</meta>
							<!--Organisation identifier -->
							<identifier>
								<system value="https://fhir.nhs.uk/Id/ods-site-code"/>
								<value value="RFM8C2"/>
							</identifier>
							<!-- Type of organisation. -->
							<type>
								<coding>
									<system value="http://hl7.org/fhir/organization-type"/>
									<code value="prov"/>
									<display value="Healthcare Provider"/>
								</coding>
							</type>
							<name value="Hebburn Hospital"/>
						</Organization>
					</resource>
				</entry>
				<entry>
					<fullUrl value="urn:uuid:11507dfa-a3a2-4c6f-9ef7-9bc77955daae"/>
					<resource>
						<Binary>
							<id value="11507dfa-a3a2-4c6f-9ef7-9bc77955daae"/>
							<meta>
								<profile value="https://fhir.nhs.uk/StructureDefinition/cofe-binary-1"/>
							</meta>
							<contentType value="application/pdf"/>
							<content value="JVBERi0xLjUNCiW1tbW1DQoxIDAgb2JqDQo8PC9UeXBlL0NhdGFsb2cvUGFnZXMgMiAwIFIvTGFu
Zyhlbi1HQikgL1N0cnVjdFRyZWVSb290IDIxIDAgUi9NYXJrSW5mbzw8L01hcmtlZCB0cnVlPj4+
Pg0KZW5kb2JqDQoyIDAgb2JqDQo8PC9UeXBlL1BhZ2VzL0NvdW50IDEvS2lkc1sgMyAwIFJdID4+
DQplbmRvYmoNCjMgMCBvYmoNCjw8L1R5cGUvUGFnZS9QYXJlbnQgMiAwIFIvUmVzb3VyY2VzPDwv
Rm9udDw8L0YxIDUgMCBSL0YyIDcgMCBSL0YzIDkgMCBSL0Y0IDExIDAgUi9GNSAxNiAwIFIvRjYg
MTggMCBSPj4vUHJvY1NldFsvUERGL1RleHQvSW1hZ2VCL0ltYWdlQy9JbWFnZUldID4+L01lZGlh
Qm94WyAwIDAgODQxLjYgNTk1LjJdIC9Db250ZW50cyA0IDAgUi9Hcm91cDw8L1R5cGUvR3JvdXAv
Uy9UcmFuc3BhcmVuY3kvQ1MvRGV2aWNlUkdCPj4vVGFicy9TL1N0cnVjdFBhcmVudHMgMD4+DQpl
bmRvYmoNCjQgMCBvYmoNCjw8L0ZpbHRlci9GbGF0ZURlY29kZS9MZW5ndGggMzY1Mz4+DQpzdHJl
YW0NCnicvVxZj9w2En4fYP6DHluBW+YpUkYQwFe8G8RJNhkgD8k+jO2xHaxnnNhOAv/7rYOUqBYp
aVo9sWG5WyJZXxWLdZHq6v4P1Zdf3n/++N9PKvHVV9WjJ48r0Xj456zGT1ZWH96cn2ndtMpW1sAD
VXnfdJVsGw+3Plydn73+4vysevr8cfUHt8SGupE2NFTU6OcvqhtolhCUgaBuG6FCH1050xhnoRfd
HA2fdlah8x8JOOofaPa9me6ji/Oz+1/LSorGwIOL1+dnshLwVw7kbQM8X1yfn4nqDV6enZ/9svum
ln73fd3uvqu92D2t9273Uy273b16r9SuqqVUu0f13uwu6caHWju+fK7/W118c372FCj/J8OAPhkD
Eu4V8VdjGDkkJiCRyjQwWWGSpbSNLs0yNe2nOTQtzbPtx28bqyKbUogxn9lpbgcp9fC4e6CZFZPK
iimSz8rpUe3U7n29b2H29lrtbnCSq4U5dEehy0+i1bDm8uiqvWgUDH7x8pedNAuY/AkxtZ5nOSux
/QKQ7oRAHAjHlYA8rLvdn7WSuzcLiKQ4IaSubaQ/VjZSng6JErIpAKn2shGS9aZrxZI6S3VCVFo0
rd5glWQ0kMoAE7r3PaIR6B7ydonaDu5HzDgf0w+vG6Mjo61t2hXeR9pBUj0+tt4B3y0MU48gK6pn
tTe7q3ovHdukV6Dt/JUN1eKktsdBzc+qB6hFrX9eKxf84DtyjIBTtcsI3QkRami8Se2i/dRKNS5q
nfG2UUWtw6ZD0INtZ7yh7HoCtpGRU+Mw2FqOehILFgFy/wDwFmoX6Wcl9V1t3e5fdSsg2nECBLeX
wvFdcpIPFuZUyRMCbbsZN7SkXUodhURnkThQrhVOujNSd6YVQiyB00eBy2q+MRA5F+ObFaqvTK+Z
HBFb11hbdRLVuWl7rYyPdYdIp4+nuYJqzOSxtX2GMHocBg9BKIx7sOgkiMn2USomK5MGutE6opfw
tBvhi88Zfu75NAxOEcbnzEDuOY9fBKiAspltAE9Uz4GX7JISiLEBs5BtcOAzPTRIQcYGYRZyDZhE
EaRWEgQXMBrvmtYfaAk9Z4jZ51P7OlYEes4As89p/B4fLDZ1iNEL13SpMs3YcM5bJau8b2zZgis7
Td2wX6bbrFVjRZcdsHG4Wp/UzrKhfVnvOwXhLXj+a/Cmo1DgUy3RNMOK2D2uYzxwVdsOnHBr+DF9
fTVe/JtwSwjscP1lcResDMaTmvMbFrCBOEvNSDhN+7CjDkipXxZrPkgHIUudxZqaa2Em8tlE1Qrk
MS+h/YlJteQas6SScOzzaamCvcDc559g0Jumy5NKZ1CJ01LtwEIX+JMnpaRECzYxT8nVSuzu1daE
MpPE7wYvD7AopfHTaflWVjVFm1Re22w7DQhN9MYEBiisbTexntTT9z2jeV5tQgWg9ttt6Pco0L+h
geVHMcsq2M5jUUuIu8EbFVAvWtAg5mhBy3L2ExsaEPdKkcU8a0jzmP+FQuZc70Xt6R/VY6gOeoOf
WIGphEqNf+Lqmra7i7r13JC6fIRRBExKQauP50BBWCyOkHrQbYixzGJc0E01e9TvNikPtTWQbkNW
OC14tR2r8ycQpt29xY9J7ZIVFwsFrNgv4NPUA2yECDOhSwCXlZiJLoQBWkxVOOl4u/QoqHAB8be1
0kGFQaZ69xvq5vDpMqn2P6uNYWV9h4/oQo3+qvdGhEFIo6uiGq/hwmTVGEsNBSa+FOKR/GoLyfzK
UV3j1071SQjCAEKVCD6p2zApbCteksF+i/ORbMG8ARuUrT6dBGCnyQrlAEIqYiwHJY/fn560Fr68
7Iqh1wZ6UoOHKdB7XzvN4n4F4qY5uRnm4VPYUdEZF7odF3TpigYy3ZwbOydb9k7UkPCyYv0eeSIz
cIlxGK11bk0NQ++Tc2c6QT4+z10xW9lC0DXK/YN6hX7YF5bQusxlA23VlnX6LnjVsinINtmgKacw
GyhD0KOL5qKYyWwgCAmELRIMCQ2vzdPTbssOfm4H9SS0veAyWJbvB3dBMMRR80ql70KpunaG1xV1
Zi37kyad1uEazpkAGoxJW9o8dE7Cs2zFbjRerPD3oE0xoG4NDnwI+ifc3gCDvwdzfoUBBUYY3e7y
HYTP9Ak8gsTIUJJXAS1+yHf4evURXQlc/O76qrYt+IW9T1t/j/n6n/3Nl0ToPToPaD/Ia8qZTjgb
9uA82eqBlbHUDzIXTSc1JPw3m5ZrM01esKvjrvqYxNxo15iA8CmKgNJqzsYpXaEc5mZIZKhY+aE2
OiQuF/XeGXABaDF+p33PUhJzNFSu/6dIZ5KXtqNFxyJVsHT8rEiTOnHa1XHXW2bgTlEhPAH6NeUb
7CY5Co4RLwYoFLVQlMLfX6N6lho/hqHSmOYjavGQ44QIqI/qKCwKrSf2ZSunGmZEr5yRoOOSLFLU
8dJ0tFMNTzre7jBR1HDpsTy5WcV/w5wy1qZKOn40WCkdBiAp1mUlZ2pRyUsydVMVTzreMkMPKj7g
XCrSb6booacfSyYTAG4m0ymsl4/IzIe4Wykq6KnunC+lZGm2ctHsZnIQHRg95ioTw24mYxQ61hGZ
w1K8wO/dHdCGAfyBWclEj5vJOD0hcwfLS0GMKQ70/i70IgRE6+wbuwzd+TQsKpk3P3EZ1FFvcRmC
UgWGidu2YASkGlVu2TPQwRu+wa6Dr+QqyKFgjSvZueAR8CaPSG2oNUapNtkT/g06YfwJ40/992Y+
JcygO+Bz0d2E+VhyN93E3QScG9xNivOf2MnYijuuqnXyDeruiOiCuhsxVXfsmKjBrVRde4U8nlTV
v0VVT3b1Uq2G1vSkrNRHcSMNWaYRN8sKzRJfUGgjpwrNGHvFuJUyawdQ1+pEq1aYQDN90YI6HqsS
rWlObPxWJ4lH4ZbKYw0ixb089yzZpbnX07knhEdO/UiyfTp3sEc1vzu1AYWSEvK1FMTPGC4lWzKv
aMZOSpP3dFOiv+7qNrB/QHrIWd/1n1CJQHF0t/u1rr0+MTw8oSZH6NJNg6wbwZu0lTWzD8HHq/uN
CG4UGjiVUf8tPBhYO2qN9o8022TKVtEAqA4LjjzWw1dUCbvGgISLZgfFtg+Xn9Cr4t2/KIi5CjE4
sPwEdZmbXdIA76jvgG5UNAPLPSKdsgEyov2WPb72JkRbeUOHyDs7qu3gIcihRonHp+G/UKOMBxBj
kTIrFntYpyybSdHh6UuGSnvTpBBcuImFmLg5PWjVgwL3vqMToqNRq4O297+22W1+RUfwR10fosZy
UPkxzAoa6ninhRmF+egKx2yi32bDnwccbVpKtdyW3sQZtSU/cXgMYqjHsDPhuwyEsfMddCIRntGj
xjTEa5C3DDcGhzT0SlzVGgkYPfJ8w4iHM9TriOmaTo0ZRl9K4N5hd7okAEK9CWH/jKssIY3iuVcg
hCmZmdeaoalvDuaA3h5g+ngA5UUdzqwQ2cAgMkzt3g8qhYIk7CxHxkocNfCxLBYLQbRxZbjT9diu
Xo+qU3018iGbKLBAfGWXmt65Zs6t4FX5aSjCUo7AHuf3/oRCadVKIyhFSGivXLTS0Bn5tOcPtMVB
J4U+k9GldUpyfhnSw17OaVz1Nj0JZ3RoBuDbMA43zpgE2y1YBF5WBXvdadwfTjnYF5t2+E7SnJiG
0xPycNTn7/GV3hdR54aVw/jukkcjHFYfS8Cn+upW73OpVuCLKkFhD/aq9tKHL9e1BSW8qY1du1tV
UemA98uoyTWMsbv8gPsFn0sT5B1NUIpps/tV1mJS1rtf18GfeffrD8XHSXdOfBApyID0WS11kNEV
BJMCdwVdR29E+Q5DTTS8oB3X9d7yJQp0T8phy+u79XiGJSU2P//diIHsyo8M0FtwQcNh3eLUAqZv
8EX1kCL3yzq6vkLoYMj/pwMmNSUaNXFhycbHX7ybOliONHeLtp9dKT2mTryCaNS3B+Wr4SaPWfDQ
qQuODqSNNu5/JQ0F1TyQ2r3ga+L5yUncwKgSXz94Xm5w05/KTLsxh3Q7Y3R40ENJoYz+jnt2wPpA
qSmaFtNoP2KobIVafLe61HSihVasXkYS3xaNK552x/6oNZ6dNA54dC24EW0ma6ZCTtvdj2xioYdK
esAKBKW6xlW3dpkpCAj8GMs8g3L1MsNSp49S+7H2Ud9ZrRPdT5bIEI+yWpAqDC/xJMuAr8MGYsYt
IZmMZ++VKFG/sHTi7mP049jJ2tFyDCeJ+y3KeZUdAzIcvyUk2CQk6+RlkjLcwxdK06B4ME6vcSzq
MLzxfFN3bd/fTpbngOxVxJmsImPTwvgwDWFuCqsDEhFzMNGlQMQ4j25s1DbNLsa5Uhsnai5XGuUb
hbDX0uuGI6q3mbHCqHzIJ8NLPyWMfj4mb5WmNweTUebX3uQoT9m4aDecg5DBqpB5IJPwFr+yw0ZX
DRn0Q2L4JUYq1ILsCbnuG2w776oNC7mnOc+FXm9BZNf0gw6vVyfuOVHc1I/0qyx14pPQs+Qfwku0
I+rlM0QdnTXD68yPvEzPD2EH1fe79UYZ/sBGtlxzUHNVtHPEGCU4cjkDMj2Ro2gDJoCkjrd9oYBe
hFwJU3na2WWYZq4ubNMfbMBePoLkbrf4YYlOYuC9FiHE22YdwvQHG7DXGoSFk/SO+FuHkLXRWUwj
FrRxunGL3Y7WRYcHaGIi3cb3bJJTO+k+xud4+hyuSVDADo769CUO8mLk1aYbhZtw40vqnU5xL64g
luvSCuomK8jx70Qdu34SiMlLOOnhNPoJrqHIGestkzL3RjiQpULInMApv0VQ3hhOdl7oOT0Cn4Ol
Fkn1lRPDVt7iClo10cEG8UTPrvBWTGwQATzSAmE1d639WYNOTuzPEro567OMbkR8HKK0MyFKK8Jr
tBnn+n8wvIdADQplbmRzdHJlYW0NCmVuZG9iag0KNSAwIG9iag0KPDwvVHlwZS9Gb250L1N1YnR5
cGUvVHJ1ZVR5cGUvTmFtZS9GMS9CYXNlRm9udC9BQkNERUUrVmVyZGFuYSxCb2xkL0VuY29kaW5n
L1dpbkFuc2lFbmNvZGluZy9Gb250RGVzY3JpcHRvciA2IDAgUi9GaXJzdENoYXIgMzIvTGFzdENo
YXIgMTIxL1dpZHRocyAxMjEgMCBSPj4NCmVuZG9iag0KNiAwIG9iag0KPDwvVHlwZS9Gb250RGVz
Y3JpcHRvci9Gb250TmFtZS9BQkNERUUrVmVyZGFuYSxCb2xkL0ZsYWdzIDMyL0l0YWxpY0FuZ2xl
IDAvQXNjZW50IDEwMDUvRGVzY2VudCAtMjA3L0NhcEhlaWdodCA3NjUvQXZnV2lkdGggNTY4L01h
eFdpZHRoIDIyNTcvRm9udFdlaWdodCA3MDAvWEhlaWdodCAyNTAvU3RlbVYgNTYvRm9udEJCb3hb
IC01NTAgLTIwNyAxNzA3IDc2NV0gL0ZvbnRGaWxlMiAxMTkgMCBSPj4NCmVuZG9iag0KNyAwIG9i
ag0KPDwvVHlwZS9Gb250L1N1YnR5cGUvVHJ1ZVR5cGUvTmFtZS9GMi9CYXNlRm9udC9BQkNERUUr
VmVyZGFuYSxJdGFsaWMvRW5jb2RpbmcvV2luQW5zaUVuY29kaW5nL0ZvbnREZXNjcmlwdG9yIDgg
MCBSL0ZpcnN0Q2hhciAzMi9MYXN0Q2hhciAxMjEvV2lkdGhzIDEyMiAwIFI+Pg0KZW5kb2JqDQo4
IDAgb2JqDQo8PC9UeXBlL0ZvbnREZXNjcmlwdG9yL0ZvbnROYW1lL0FCQ0RFRStWZXJkYW5hLEl0
YWxpYy9GbGFncyAzMi9JdGFsaWNBbmdsZSAtMTMvQXNjZW50IDEwMDUvRGVzY2VudCAtMjA3L0Nh
cEhlaWdodCA3NjUvQXZnV2lkdGggNTA4L01heFdpZHRoIDE5MTQvRm9udFdlaWdodCA0MDAvWEhl
aWdodCAyNTAvU3RlbVYgNTAvRm9udEJCb3hbIC00NTMgLTIwNyAxNDYxIDc2NV0gL0ZvbnRGaWxl
MiAxMjMgMCBSPj4NCmVuZG9iag0KOSAwIG9iag0KPDwvVHlwZS9Gb250L1N1YnR5cGUvVHJ1ZVR5
cGUvTmFtZS9GMy9CYXNlRm9udC9BQkNERUUrVmVyZGFuYSxCb2xkSXRhbGljL0VuY29kaW5nL1dp
bkFuc2lFbmNvZGluZy9Gb250RGVzY3JpcHRvciAxMCAwIFIvRmlyc3RDaGFyIDQ4L0xhc3RDaGFy
IDU3L1dpZHRocyAxMjQgMCBSPj4NCmVuZG9iag0KMTAgMCBvYmoNCjw8L1R5cGUvRm9udERlc2Ny
aXB0b3IvRm9udE5hbWUvQUJDREVFK1ZlcmRhbmEsQm9sZEl0YWxpYy9GbGFncyAzMi9JdGFsaWNB
bmdsZSAtMTMvQXNjZW50IDEwMDUvRGVzY2VudCAtMjA3L0NhcEhlaWdodCA3NjUvQXZnV2lkdGgg
NTY4L01heFdpZHRoIDIyNDIvRm9udFdlaWdodCA3MDAvWEhlaWdodCAyNTAvU3RlbVYgNTYvRm9u
dEJCb3hbIC01MzcgLTIwNyAxNzA1IDc2NV0gL0ZvbnRGaWxlMiAxMjUgMCBSPj4NCmVuZG9iag0K
MTEgMCBvYmoNCjw8L1R5cGUvRm9udC9TdWJ0eXBlL1R5cGUwL0Jhc2VGb250L0FCQ0RFRStWZXJk
YW5hLEJvbGQvRW5jb2RpbmcvSWRlbnRpdHktSC9EZXNjZW5kYW50Rm9udHMgMTIgMCBSL1RvVW5p
Y29kZSAxMTggMCBSPj4NCmVuZG9iag0KMTIgMCBvYmoNClsgMTMgMCBSXSANCmVuZG9iag0KMTMg
MCBvYmoNCjw8L0Jhc2VGb250L0FCQ0RFRStWZXJkYW5hLEJvbGQvU3VidHlwZS9DSURGb250VHlw
ZTIvVHlwZS9Gb250L0NJRFRvR0lETWFwL0lkZW50aXR5L0RXIDEwMDAvQ0lEU3lzdGVtSW5mbyAx
NCAwIFIvRm9udERlc2NyaXB0b3IgMTUgMCBSL1cgMTIwIDAgUj4+DQplbmRvYmoNCjE0IDAgb2Jq
DQo8PC9PcmRlcmluZyhJZGVudGl0eSkgL1JlZ2lzdHJ5KEFkb2JlKSAvU3VwcGxlbWVudCAwPj4N
CmVuZG9iag0KMTUgMCBvYmoNCjw8L1R5cGUvRm9udERlc2NyaXB0b3IvRm9udE5hbWUvQUJDREVF
K1ZlcmRhbmEsQm9sZC9GbGFncyAzMi9JdGFsaWNBbmdsZSAwL0FzY2VudCAxMDA1L0Rlc2NlbnQg
LTIwNy9DYXBIZWlnaHQgNzY1L0F2Z1dpZHRoIDU2OC9NYXhXaWR0aCAyMjU3L0ZvbnRXZWlnaHQg
NzAwL1hIZWlnaHQgMjUwL1N0ZW1WIDU2L0ZvbnRCQm94WyAtNTUwIC0yMDcgMTcwNyA3NjVdIC9G
b250RmlsZTIgMTE5IDAgUj4+DQplbmRvYmoNCjE2IDAgb2JqDQo8PC9UeXBlL0ZvbnQvU3VidHlw
ZS9UcnVlVHlwZS9OYW1lL0Y1L0Jhc2VGb250L0FCQ0RFRStWZXJkYW5hL0VuY29kaW5nL1dpbkFu
c2lFbmNvZGluZy9Gb250RGVzY3JpcHRvciAxNyAwIFIvRmlyc3RDaGFyIDMyL0xhc3RDaGFyIDEy
MS9XaWR0aHMgMTI2IDAgUj4+DQplbmRvYmoNCjE3IDAgb2JqDQo8PC9UeXBlL0ZvbnREZXNjcmlw
dG9yL0ZvbnROYW1lL0FCQ0RFRStWZXJkYW5hL0ZsYWdzIDMyL0l0YWxpY0FuZ2xlIDAvQXNjZW50
IDEwMDUvRGVzY2VudCAtMjA3L0NhcEhlaWdodCA3NjUvQXZnV2lkdGggNTA4L01heFdpZHRoIDIw
MDYvRm9udFdlaWdodCA0MDAvWEhlaWdodCAyNTAvU3RlbVYgNTAvRm9udEJCb3hbIC01NjAgLTIw
NyAxNDQ3IDc2NV0gL0ZvbnRGaWxlMiAxMjcgMCBSPj4NCmVuZG9iag0KMTggMCBvYmoNCjw8L1R5
cGUvRm9udC9TdWJ0eXBlL1RydWVUeXBlL05hbWUvRjYvQmFzZUZvbnQvQXJpYWwvRW5jb2Rpbmcv
V2luQW5zaUVuY29kaW5nL0ZvbnREZXNjcmlwdG9yIDE5IDAgUi9GaXJzdENoYXIgMzIvTGFzdENo
YXIgMzIvV2lkdGhzIDEyOCAwIFI+Pg0KZW5kb2JqDQoxOSAwIG9iag0KPDwvVHlwZS9Gb250RGVz
Y3JpcHRvci9Gb250TmFtZS9BcmlhbC9GbGFncyAzMi9JdGFsaWNBbmdsZSAwL0FzY2VudCA5MDUv
RGVzY2VudCAtMjEwL0NhcEhlaWdodCA3MjgvQXZnV2lkdGggNDQxL01heFdpZHRoIDI2NjUvRm9u
dFdlaWdodCA0MDAvWEhlaWdodCAyNTAvTGVhZGluZyAzMy9TdGVtViA0NC9Gb250QkJveFsgLTY2
NSAtMjEwIDIwMDAgNzI4XSA+Pg0KZW5kb2JqDQoyMCAwIG9iag0KPDwvQXV0aG9yKEthdGllIFdo
ZWF0bGV5KSAvQ3JlYXRvcij+/wBNAGkAYwByAG8AcwBvAGYAdACuACAAVwBvAHIAZAAgADIAMAAx
ADApIC9DcmVhdGlvbkRhdGUoRDoyMDE3MDYyMDEyNDYxNSswMScwMCcpIC9Nb2REYXRlKEQ6MjAx
NzA2MjAxMjQ2MTUrMDEnMDAnKSAvUHJvZHVjZXIo/v8ATQBpAGMAcgBvAHMAbwBmAHQArgAgAFcA
bwByAGQAIAAyADAAMQAwKSA+Pg0KZW5kb2JqDQozMCAwIG9iag0KPDwvVHlwZS9PYmpTdG0vTiA5
Ni9GaXJzdCA3NjYvRmlsdGVyL0ZsYXRlRGVjb2RlL0xlbmd0aCAxNDQ0Pj4NCnN0cmVhbQ0KeJyt
WNtu2zgQfS/Qf5g/sHgngaLAYtOii6BBkATYh2IfnESbGHXswHWA9u/3jEg5bjOkskJfTEvizDkz
cziUqCN1ZBQ5RTqQ6jwZQyrgniWtFRlNOiYyuO8MmUC2c/hL1uNOImc63CEXNZlI3nqyioLqSHsK
HraOooWRpdRhcJQcBiB0fBkxBkWYoJQ25DqMEQ4T4VIDA2NkEFKM7jQphncOI5w7S8opy9yVgx8H
fx7cAKF8DOThLwDawV9Inhz8Rfix8JMUnsMuJdB2pDs89AhZdbgOGHETISIFmGcwBkvIijYcZsKY
OgqIz4I8oLVNiXxEvPAT4M9rPIc/j0kB/oJOSAjGiPzAX4QfhKpTh+fwlxAMJ7FTijDFdAANEZWB
n4iMq4jnFuVAJRCa0clQ5GIhpxGFsfCDlBiuS4SdY39cN+QZVI1HEhL8BvhPmBcQLFyYiPgS/EYE
lYCTtKbEpQX5xNUeVIEadWCJqqG+qIzqkEUFvwqwVg8FhSbAHn8s/nBpuMJW6UFU1iKfSJF1qLOC
PqyHgepwx3PZMM0GxTpgOQQWAtxEJE0pQEWkRim4SZCXUoBKiREiNIOCooYOCsGTAJGAm0bRUQqU
ESKBSwTlHKiyyAIyD78uoPzv3i3OWfcdXSwuF5ePy83i6sdjv7jc755u9h/W/cPi/I7M8PyUuvfv
37752eT8xfzTLwQ8Mv/QwfTZzBezqxPJTvNavODViEGyR+Zfx9S+NBGZQuMUKBKXFtnDcptB25hM
21Zpu1fSVualjZxhXvlY5FjXcwj7TDhUCcfXEo4vbWTCWOIdy1GzCOdwTgNn9NoK54P9FGf9LA49
JvnqQtRjyHnSeXB5yCK1VZFqOzpdXq970a+v2VrTSsJvstDNoK3N8bkqx+ba1060aRfXxipYaoL5
GWCuKqGpzGQ5ZEqSvWv2Gi0uVafaZE0VzDbB4hywes3bmcmBF0oicFszSbSZKGNVM66pGdPNAPNz
NZMDL5TmdYu8wouqSwkL36ZDOfrhjdaIHdi3La1o02w//GZZoel9E0zsIlNg1f3Mt4uUAy+URPu2
osQu5GOTbKgqKqgmmNhFpsD03MzkXTdUN7vQ1ozYhUK7jKGqmdDWjNhFpsDmaiYHXiiJwE3NWLEL
hXYZY1UzsakZq+aAzdVMDrxQEsk2NWPFV/DYLmOsaiY2NWPFRjgFNlczOfBCad5mkFtgWe9F3KWS
hXbT7yclv/L9/43Eih16wkZslFPk5C+cg5GWXyhnsBP7xwSQE9dxG8iJy3EKSP4ybQOJ6uZDjJaR
KIY0djN5SfAJSUV7fELSghN1NAlXlTofv7TgRAlOwlXbC5/ttOBE8U7CVRtMOvRsscGU0o45H5Mx
spQDaO5TTlxIfPDUjEBVdyo+4GrhiYtwGq+6WfHxWQPPi+t3Gq/6pcOHcy08ce1P41XrN6mIvBuX
tI/pGGnO24RS8dlVP8HafcnLvewgjOVuLx8tDLD5i4sPr4chX8WyBWZmKS+DlKekPCXlyFNeEik7
S/mrKuXPtJzM4Rh1CKxwO+Jytev7i+12v7jYrvvPy0c+z2LW4Nxvhqd8xsp3mPBBJYenZ/33/Wn/
g1Rx/RG+Ntt9vzjjnw+b2+eLK0y93n5fXPY3+8Wnfnnb7/J/thn//7VZrzb95f2SGfKNPzbwsNyv
tptyvduv/l3iz3D193b39Xq7/bo42d48PYDTcOfbfd/vc9o/L29226PrP+/xe3R9slqut3dHNy7X
q9v+aG7GwbS73fJh8XF197TrS6xnTw/fvhCf+T9n95dD31+H45PVGcPxOWdlOD5WbA+ZUj6qKodI
5XimHJyUI4lyWHAQ6M9Dnpk/VctHYPk8Kx8+5ZOkvOyX1/DygltePX+T2sumPe6m4zY37j9jFx+7
69j1xm70vEzevvkP7ODD8g0KZW5kc3RyZWFtDQplbmRvYmoNCjExOCAwIG9iag0KPDwvRmlsdGVy
L0ZsYXRlRGVjb2RlL0xlbmd0aCAyMjQ+Pg0Kc3RyZWFtDQp4nF2QwWrDMAyG734KHdtDcdJdQ2Br
GeSwbizbAzi2khkW2SjOIW8/2QsdTGCD/P+f+C196a4d+QT6jYPtMcHoyTEuYWWLMODkSdUVOG/T
3pXbziYqLXC/LQnnjsagmgb0u4hL4g0Ojy4MeFT6lR2ypwkOn5de+n6N8RtnpASValtwOMqgFxNv
ZkbQBTt1TnSftpMwf46PLSKcS1//hrHB4RKNRTY0oWoqqRaaZ6lWIbl/+k4No/0ynN1PtbjPVf1Q
3Pt75vL37qHsyix5yg5KkBzBE97XFEPMVD4/CUlvKw0KZW5kc3RyZWFtDQplbmRvYmoNCjExOSAw
IG9iag0KPDwvRmlsdGVyL0ZsYXRlRGVjb2RlL0xlbmd0aCAxODIyMC9MZW5ndGgxIDUyMzgwPj4N
CnN0cmVhbQ0KeJzsfQl8U1Xa93Pumu0mN3vaNE1C0pY2LeneUgqNLQVKwRYo0gKVFMoqSBRc2GzH
QZGCOoALCs7ojCvOaCoqrcNg9XUcx2UUl8F9dNwV1HEfscn3nJtQYMZ5+eb3Tb/v0zdP7vnfe849
+zn/8zwnN+0FAgBWBA6ax89omBj79oEowH0eAPv6iePrJ0A2ux/g3lKMlTmxuWmGWKGvRn8L+isn
zphZ+7b//Wz0b0X/VVNaZkyq++j5qwC0OgD2t00zgsWrXr3hCAB5Ee+Hzxg/tXX139avANA/BsC/
sWBFR+TDjAmvA5zdjHEeWHD+as8Z3kUFABdifPLZosjiFWvrP/YDRDA//sHFHasiYAc1lodhIC9e
vmZRvO+vEwHWPgmQ9e6SzhUXxmobtQCW2wHabl+ysKPz9dVnXYF5zcX45UswwNisuRv9WEfwL1mx
+sJRn2Q8DMBUAqieX75yQcfYX06aA3DjvQBiZEXHhREhS6jF+H0Y33N2x4qFp3/c3wFwO5avfSOy
ctXq+IXwHNaHo/cj5y6MvL7utYMA52F9WDXQvuXFuzxjXTfNM1R/CU4VUPnN8hnf0PNj2x555Oj1
gzuk21U7MK4aGEgIplNpY9Oxnyrx/jnS7UpOJ8peGsLug9OAVfwMyBCCmXjB8w8mQrgtzH7gQcVf
z5dgllmJM3sjPMfyKmC0Ko7lOY7hbgIhHgLPHNqjNOHUGR4P4MdjFjJjbfC4Skvu8gD5Bb3HLeAP
0pYCUSWrhGUojq2EJ7i9cBt8j3Bt8BC6W4/5mbfBxx6Cs4/5+ShE+CjR4Lkf3VZ0LcnwS9HtTl4v
wTLe/L78qQjl4BAccIB/HBYLN+P5AnSlcEDYgP69cECpxzmQp+SVBgfEq/Heo+iegsVDedRimrth
Bb8aco+FqUWo/Vdlnih8K5zB74Q93H3QiufZfDO0sh0QUK73wh7soxuH2r8f9qgugD00nL9Iib+H
xmO/xfQPwjz2Fky3F27C8cocyr/s+HVK/jOCc+q6/9d1SElKUpKSlPz/IOw+QiyWvIT2dzjQbNKj
owL0yEvE0pIcg1s/KhdNIFJklNBMs4xAc3IoF50gCzqtkGtBQzQ/Vy0IOqLJdWO04ajyP1qGKUnJ
/0whSabq4BtVHFSgisdwT6VB1CioBS2iDnSIEkjxQSSkHtEABkRZQSMYEU1gin8HZjAjWsCKaFXQ
BjZEO9jjR8EBDsQ0SEdMByeiU8EMyIh/Cy5wIWZCJqIbPIgeBb3gjf8dRsAIRB/4EP2QhZgF2YjZ
iN9ADuQgjoSRiLmQi5gHAcQA4teQD/mIBVCAOApGIQahELEQiuJfQZGCxVCMWAIliKVQilgG5fEv
oVzBCqhArIRKxNEwGrEKxsS/gDFQjVgNYxHHKjgOxiHWQE38c9xdnoZ4moK1UItYB3WI42F8/DOo
hwmIE2Ai4kQFJ8EkxAZoiP8NJsNkxEaYgjgFpiJOVfB0OD3+KTRBE2IzTEOcBtMRpyN+AjNgBmIL
tCDOhJmIZ8AsxFnQGv8YWhVsgzbE2TAbcQ7MRZwL7fHD0K7gmXAm4jyYhxiGMGIHzI9/BPMVXAAL
EDuhE3EhLERcBIvjH+J+cAniEgWXwlLEZbAM8Sw4K/4BLIcViCsUPBvORlwJKxEjEIm/D+fAuYjn
KrgKViGuhtWI58F58ffgfDgf8QK4EPFCBdfAGsS1sDb+LqyDdYjrYQPiBgUvgosQu6Ar/g50Qzfi
T+BixIvhp4g/VXAjbIy/DZfAJYiXwqWIm+AyxMsU3Ayb429BD/QgboEtiFvhcsTL4QrEKxD/ClfC
lYg/g58hboNtiNthB+IOxDfhKrgK8Wq4GvEauAbxWtiJuBOui7+B+yeK18MuxF0K7obdiDfAz+N/
gZ8r+Au4EfFGBW+CmxB/Cb+Kvw6/gpsRb1bwFrgV8VYFb4Pb4q/B7XAH4h0K7oE7Ee9U8Nfw6/ir
8Bu4C/EuuBvxbogiRhXshd74K3AP3IO4F+5FvBfuQ7wP7ke8H/Fl2Af7EPugH7EfHkB8AH6L+FvE
l2A/7Ef8HfwO8QA8iPggDCAOwEPxF+EhBR+GhxH/Cx5BfAR+j/h7xEPwKDyK+Af4A+Jj8BjiH+Fx
xMfhifif4Ql4EvFJBZ+CpxD/BE8jPg3PxF+AZxQ8CAcRn4VnEZ+D5xCfhxfi6BT8MxxCPKTgi/Ai
4kvwcvw5eBleQXwFXkV8VcHX4DXE1+H1+LPwF3gD8Q0F34S/Iv5VwbfgrfhBeBveQXwH3kV8F95D
fE/B9+H9+DPwAXyA+CF8hPiRgofhMOIROBJ/Gj6GjxE/gU8RP4W/If4NPkP8DPFP8Dl8jvgFfIH4
JXyF+BV8jfg14lPwDXyD+Hf4O+K3cBTxKHwXfxK+g0HEQYghxhSMQxwR7TG0z/artWpgWY5XVnwe
TywHIFABenAJVaASBVEQRBF4EFSiCgB9aLcNqQpB4JWDpV/T0cQcz9MYwnDopWHJNCUp+aGJRqeh
3E3wgXKX0likAvRIcletEtWiqFIhbwS1Sq2QGfdUQ7mIyG2RF0XKXS1NzAvow/DhqPKwZJqSlPzQ
RKvTAsdxCT5QVUlprKIC9BjirooeauSuqFGrlRgncleFyljFq2h0TkcTCyJPY6iGo8rDkmlKUvJD
E51eh9zlE9ylqpJyV00F6JGwpWmARqXSaFDnqbQaLQ1Qnfid5f9V7qqHI9OUpOSHJpJeQu4Kx7lL
afxP3NWgIH21lLu67+EuetVqXq2m3NXTxIJKoOp5WGiW4m5KUoKil/W4zRUSCpKqSspdSlUN0CP5
vZAWRaPWalGRqiX6wzkt3kz8FEsR1MoataDRKNyliUWVoBku7mqGI9OUpOSHJgbZQLmbINkx7lKq
aoEeSe7qtFqdRqPTIXc1ep1EA07irga5q0lyV1a4qxYpu4eFZtpTR0lJSn78Ipvk49ylZi5Vwf/M
XZ1O0mokif5GwCChrawoX9NQLlotKmVRq1W4SxOr1KI2xd2UpGQYxWg2giCICZId466OCtAj+TxG
knR6nVavR+5qZT3lLt4E81AuqJV1WlGno490TTSxSqPSaYeJZrpTR0lJSn78YrKYKHcTJKNmrqim
VEUBeiS5q9dLBp3OYEBFqjXiCfQSMsgylAtqZUmnkiTKXbOkkyS1VkVjDAvNpOHINCUp+aGJ2WoG
UVSdzF09FaBH8iGPQa+XJZ1BRkWqM8kyDUAGWYdykZC7kkrS059jWPQS5a5aP1zcHZaf06ckJT80
sdgtlLsJkuEOF6j5/E/clQ16o16SjchdyWw0YgA1nO1DuUh6nV5S6RXuWmlijU5N2T0sKjLF3ZSk
BMXqsJ7MXRVy10AF6HGMu7LBqNcbTahIJYvJpJBZ+UF0UvQGnUGvNhgod20GvcGg0WlojGGhmWE4
Mk1JSn5oYkuzgUqlTihI+gUUNZ9lKkCP5ANao1E2GfQmyl291WzGABkZlDaUi8EgGQxqg0x/SmWX
kfhaSSMPF3fl4cg0JSn5oYk93U65myCZJP0L7ppMRrNsQNJKYLCZLRhAN73pQ7kYZL1s0MgKdx00
sVavoeweFhUpD0emKUnJD00cTgdyV3Ocu2odVbMoQI/kA1qzyWiRZSQtctduQe6ajTKAcygX2ag3
yhqjkXI3zSgbjTq9lsaQh6PKxuHINCUp+aGJM9MJarVWVjz06Y8G+WumAvRIPqC1Wi02k8lmR0Vq
TLfbMcCMm97j/wDNZJbNJq3ZTH8G6aKJJVlHY5i+p8T/YzGfOkpKUvLjF5fXBRqNLqHLqCFMVbCV
CtAj+ZDHbrM6LGaHAxWpyZmG+1y7FZWvdygXs8VoMessVvpTKrfVYrHojZLVPEw0s546SkpS8uMX
j98DWq2UIBl9+qND3WunAvRIPuRJc9idNmu6ExWpJdOJtnKa3Xbifzaz2sw2q95mpz+lGmG32Wyy
2WC3DhPN7KeOkpKU/PjFm+U9zl369Ecnfw9309McTrvVmYHctbozMjCAGs5ZQ7nY7Ga7TW93UO76
HJhYthgcKe6mJCXDKFl5WSBJBpviod9CScjfdCpAj+QXxa4MpzvNkelGMjp8bjcGpKPhnDeUS1q6
LT1NTk+nP8fISU9LTzfZjOmOE58A/wcl/dRRUpKSH7/kBfNArzcmHtVSZWpA/mZSAXokv9P1ejJ9
LucIH+o850g/2sreTBdAcCiXDFeaK8PkyqSPdPMzXS6XNc2c6Tzxm+j/oKTeEZCSlKCMKh0FsmxO
kIx+C2VEFeylAvRIftnk93mz3ZlZOajzXPk5ORjgReVbOpSL2+P0uM0erwwgF3k9Ho/dafVmDhPN
vKeOkpKU/PiluLIYjEaLS/HQb6FMaOf6qQA9kn8qlJPtzxvhzc2DDPAE8wIY4B8BUDmUi9fn8nmt
Pj+qaWOZf4TPl5Zp93uHiWb+U0dJSUr+RwiTfCeFBVh6RXA/SYTjL6ogDANDbzo7JvRtZsl/6kz/
Ct8g0+dEVpsdd75oQCfi+LOyc0bmItMLIFhYVAxQVl4BUDWUx/j6CRMnNUxunALQ1Dxt+oyWmWfM
am0DmPufbmDilWu9/24yTnkDmB88eMXBCMjFhpRCBbZgEkyGJmiBWbAUzoc1GO83HnM8DvRNayMh
HwqhHEbDaRhrCkzHWB2w/His+Fv/zWdBfMEbP//ffUdIqKqlsqK8rLSkuKgwOKogP5CXOzInO8vv
G+H1uDNdGc70NIfdZrWYTUbZoJd0Wo1aJQo8xzIE8knUUdfamyYGnGhjtRUk/ekn+6NslvyZNwqm
kyI5/yFRxj/4Xf/gzxzynx4FS3SCr248zbgXJrwbBXOUWKJASyHmqVhSMlF95zJf/dJoWl1nOIwp
xvtkT3TCp8FkVZS8e7WaOl/dQk1BPvRqtHipxSuMG+klE8YR5YKZUF/Vy4BKKsiPmgJRJqueumXR
0JYwXvjGY054x3z8Tl98YOuJtwCTHbsyJ65IVKiLikq5nqXRUEcUtnh68wd6tvbJMD8c0HX6Ojvm
Ys91YB17gc2qX9JC+7GeuvAST5TDzBVwYoinfomnx0e7o35JGNE3HlN9bzgGq+taN3kHnFETnuuj
xkB0IsaYuPZtJ9tT71jqod6enk2e6I3TWk+866XY1tbmwAr31PswQ8ysflktNsURLMhPtCnZAZ3h
ZbTMZR20nvXLPD1bFip13arUQYlavwQHpuNUsXp66jt99Z0dnbWJ3OuioRblBC2zW5UGYteNb0sG
JSPgHU65Ex7f5k10duP01jpaMV/HeGdi2IdCwskQDKg/dtNDa9CAGUQ9CzxRmN7qw6iVFBZWQs+C
SmXyeNsIpmo+nirKZ8k+T8+XECVh35HDJ4d0JEOELPlLoJcTfBPCPT0TfJ4JPeGejr5493yfR/b1
9DY29kTqw1hqcyum6os/sMUZnbC1LSqHl5Aq7Hs6AyZMb61xeo1tx7zNx7yAUwonllZpDvYCHg3J
E/YytLR6PdhRM1vbnNhPrfS6Ba8TZzqRcOJW4hgnu4320cLKoe6pS156vXR2bukLwXz0RLuntSb8
HpjvvAdCwQCOR5jeGTh2xzqT3uk+dmcoediHpdyrLFTWqCp76DDINnP9kqoosf03txcm7kfNda2s
k2lLXDFOll5pAsj06qg9gNcjAz04CM/4onIgyrcOOKvbPLIRVwA6ejN8jdNmt3rqe4ZmQSIk2VI6
D3Cq+zqW9CSpRCc9LgW1vT5y2bTeELlsxuzWfhlX7MtaWu9hCFMXrm3r9eO91n4PLq1KKDMUSn0e
6oNGOgHvYVTKLWd/CKBbucspAYp/QR8BJUx1LIzAgj4mESYrYSgFEFK3vP+e3/3eu0Y3Dl+o8886
uTz0Ejm03eh+Ct2T6J5A9zi6P6J7CN0du/zu3eiu3+VxX7drpHvXdqf7bzut7tt2prmv3ZnnvmZn
lvtqvA7tJDsxuuEzctX2NPeO7QH3tu24Vd5OaEFzt2vlcsN+9/7gfjb4WwL9cj9jwDrfRzzfdH3D
yF97vg59zXZ9SeQvPF8wno+bP2aCh2sONx1mC1+IvMDsvWek+569Rndwb83ecDQSjTzPv/O23/0W
uuDbtIC9D2NDaEHxe/Hi2a5R7oPonunyuJ/uMroH0D2I7soD8QOM4Xck/jvSe7fRHbmbyLd7bme2
bC5092wOujd3lbgv2+hwb0J36cYG9yUbje6fbqxyb8RsVu65cU90z6d7uNBNRJ7rmRuay36OOV7c
5XD/pGuyuxvPF2GJG9A1d4W7Il2sbPC6bdY8tyh43WmOPDfHet1mU547v8CQF9CPzDVk5+j9WYYR
Pr3Ha8h0650ZLsmRli6hSSOZzBbJIBt1OkmvU2u0OkFU6dD40aFlpJMN3QYmJHQLTIjtZhkD1KBh
0AWcAYJ4GXKtRM+D8DTEQeUco3IbqlRudrTKDZUqd3MJiZoaobGlNmomeJ5RGy0JNPapYHq0ONAY
VTfPae0l5Io2DI0yl+HwtES5y3AWteD6P3tOax9Jo7cvUdQBXvWR7ksuv9w5dNXWFnBFOxtntEYj
rrZoMb34masNAiirVq9atSrwL6RXTUvvnF7b+wFHlUVH9APf+N4PP1AUR/RD33iSTHpiHniJmQ75
EscJAoHzlPDV/1SckgiXCcFC/1ETfxDcx/AkU2wB+Og5rrxPNv7asetYZ/zLf9es+1eign//fyOT
g0zuqWOdIo8ryaWkm7SQC8gKch5ZSkJkAWlD/Cn6VsJdSqRb4APiIWlETwjxESMR4SjJIi5iJhxo
0H8Y43yhxLxBwS9IFXzOJN6+uwXdg/A8vA1HIEb0cAA/i/GzB26ib2UimSSHjCaT4GPMPQPjXo+m
cj/GeQzTvALvwqdERWaT80kPuYqRmInMbIznIHVkMzOVOcr5QSQXMCaymH2AfEEEYiV+eACehJfZ
aPx9ciO8wRYwe+FCtISfI6UkxN7C5rFu5iBzC5bEUAUh0heusHiy7BMYDqgLPvXaUwoUFXqNXmMW
AsFY33bzcJSeoZtuPRh4AmEFzhaaOjtkY1mGEf/Ew2vcs+xrTfw8nuGb1KQ92P724NsQHCwO1hQV
EtbLEsyPWTEq9sAosiu2nFzFHzz6Kuf/NkhUmOdt7B84nWBR8iwP+QQRM2UJPG1gw2yEReGeBlEW
V4pdIicG1SE1gwUcKUEHNSVB0+jRtAyf8uF01X+t7kUnWAb3MlOpozunh2Kd7F4swQrVofwm0sg0
Ck3iPDJPXElWMisFzJl0MV1Cl6gXgThVBqpGDQPcfTb5C1pOCdTQdrQTbzZjlE0VXqueiAJjtZjs
mcTO7o1tGujvHyBrpu2oqW5sGFd9bXOs803yKnHi59U3XQ396y+IvX7znbEP15//0ERan1uxPjuP
1Wc8LmQh83hLM9tsDjNhNmwOWyJMhI2YIxa9CTgnOsJx2gG43y5/dVJ9ZEb0lo0jFeWmslImZxTJ
KfPaTOzO/oHYpuadY8Y1NFbX7JhG1gz0M9Wxd2L+N10TBy5YT2x33kxGXLC+v8H1ZsyPtfHFrmCW
kc3Y/0Uhv4EYGAe4iRtpFiRBZjTUkBpGy7zCvsTh7GS6UEXTnseeoVVQE5+ZWRbb+Zffk82DPHOU
tu5sRmCXstmYX0ZIJocYGcJ0N8sE+SYehw4bAEGaGOcEu5QmYgTiwRiR+Jt8iP8E7Ljy1IeK6pl6
zWT9ZNtqZrVmnX6dTeXcVWWabGJMondXmVAvMEKaY7OyL87K3Aw6osNqGROzov0IHkWF7cTCiHri
G5Gdk82UlZoqxpGSYpvdZuLlbN8IwSjbSorL+dD4SZPf33Pb4YbJteMnTz58853vT26ojW1Ytm7d
suVr1ixnPtgfOzSvY0Hn/PnEt/9hkrlg/vyFnfNjb+4n+nfeiX0a+/rDD+kbMHEt5Q7zL4ABykJu
/o4ugQiCTtCzu4nhdr1O38PyzO3A1rArcUIH278olo+MlhWO1NA6FxXmEuSdt6y4HGtZgVfc4e8y
SVXs0Ukb80tLOdJISgjHmj83WtOaq48Gabv7cd2ezH8MLtgSKtSvl+QKxmgxeqUsY6lUapxoPMM4
37raqgHGYNBeZxaZjOtJGMIZEYhkcBnUWLCp5QqADEa1udtGbLatblnGBQKHtyQof4WVMo0uCQba
lTritKtraQ05DYzW4WacjiATcIxxTHbM4ec4zuLPcnTZpfY22uOBXFJW7sc2lJXSPhZ9xnJ/iYez
WgQcCdHLTz668lIiTVuz6Kfr5j4xyzORWLfg0pZ9+bY5fTnMDV91vNx03l0zF62cMoY0usd9dOjy
2KaWyzNoa7fi7PDxn0IIrglFlNYGKWi1bLFTayoOaEfJI0b5iqu0VYbSUaXFpWMbtBOK68dOI23a
aWnTqzvJMm1nWkfl+WStdnWlc9zYzN1hnOWFhfnXudWloiQZr1OnZfdUNbnnuRl3kX1zkbtqLKdj
2drE1MKZZbKPPhIMtgdxgmF31JhGI2Iv0fUH2x3AVT3RSt8If46xJBPnWnmiH5CZAWI80TvUMzgd
E8msmYTrK6qacUbLW7/sj309I+eMTxZUXRbMyq8uKuoZM33m6Rfm5eeP8uUsyz7z1cVZ00n6tsuf
r5/efP1FJecyD+RF2pfef1pNXZWfTCydYvakTaw7baJBZolGYzLXjC2okE2608aSOu/YotyirWeu
/y+nXsxDxrXEv8M1+yDaARKcG5qaKxJBsklBcbI4QWoTW6Tl4iJprXiepNU1S2EpIrGSIIiCmki7
6FrfxbM8z4oC26SZp2E0olrHbdEQYnALQSSn0mUl2DvFlO/YW0pXFSPvN8mvtXMDpL2d+OiUN+JC
UILIz3sitm0wyPSTTU8MPhprIrNit5A5JJ0Nf3cNkz74Ltb3UpwDk/gjkAVjYVmosVBdoimsDKnr
NKdVNme0ZDb7Zvo7M+cXrdKs1q+WVznPzVhVYXIJwd0emy19l0cwiWN2C2muMptNl7uZ/hkTrko1
ZSetHVhNEy55R7C+qL2C6FeWEeGkZSQxbkZfYhwTi0omIScOrkWwWmggXWAmtUyZ9sKVl77WNCc8
e9F8MvrFhrvSs50/mT7wZ9vUOxfMujo0ozM22p2Vl+WfX5ofHskU5WZMyfc2k6OrHq+ffHpD4xlE
/t0jpPC8yHoLH3tF8u6/fdTokflVj8S2jmhvbmjPyLBaDJpRvnW/yHO7MpEpu3FdCOCoCjA1VIiK
lGxBfUp3ROz1vMAQFhqZOQyTx9QwTcw8ZiWzjhEYNAHQFEM9k5jpOFjtqFhx3AaL25UhO7JpgBAv
XbP5wOCZsRZm/yDLXcndcXQWdy9xYU8uib/F5+HqTccmHKobPaLaX507eUSDvyF3tjzbNM86L322
88yqs6pWM2v4DYa1I9dXmSyeyt32/N12wSNqNPpdQpolW612ZePY1BRvdgXpkBwbEWpLIOOGRoQR
BY6OyHGiVSSGaBSOAngTy/zQcOjJ0HBUlJbzeeH5y2KPHpz8a+fIzJXh068pHzNFmnX1ypbramYs
IFOJfsuh0+fMjf0kmOuakpcz0evOycvyzassWOZi2erfxg6cfcEFJpFk6T05eQWb5hWX5QbGPLTj
E1KAQxX7atPaGwKeDKfXs2TShHkZTptdp82llhNahswstKqpleMKGchLDC+8xIsCPNOEFqZCDlSL
NUnFSD/MrFgPOZ865mWy+egNqKIxHwda7pk4uiKy9q7QdIGhLyVhyE8wQK1huYt5XqgQKsVGYbw4
R2gRVwjzxYuEc0RUAyqG3RHRoKLSqAknCvxaVFEsTxiWw/2VWqPmNcDzDPTF/xIyaeQK3osABh0B
nVtHeDox2oOBQDsugzgv6EmpNFUL6qkwld8AG3iuvY20b5IHBwYGFFQN4O17a9RT1Qy0t3m9aAri
HNIyQmZs1eLBFxfHNjDZ5IHAvn2kIPYcf/C7FYxt8ENqmx7AOdyHrbSCH0pgdmhMo6WVabEuZTqt
EV1EOtenMpvyr4JMOZMJZ96dyWRmiq4dKrZgh2i7yJRvMIhZG6CvLDO/S7yvVP5qsBjNFWUiHVH6
mM7vc5ILd4Lb2N0nLsXk5EXbfLKX75s1pfW5Xw6ez9Tee9v0mTPOXbL9zpglK5i34Rx/9ZzurFLP
mRW1BT8/oyXjl1vHVBeQx5bvqayt5A86cgPb2pffMkrlup88nTXZJLOx3wtGe8PgsxOnmiUmdjmT
ljaD6rrFyKWzUbOXwKX9EIhv3IuKztqXOBv74g+HZqp1FcFxCCqXw+Vjs7lcVVAddPl8bUwbN0vT
lnGG/zx2rdoQNNeYV5q7zJzZnL5Nx3kKCgvCBZECrqAgexuYzQV9ZVDWVDavjPVsEPaVYie1y18V
K+qtXQHsIFRsgQCPKu3Etc9Gl79sXA8VHS8oi52NWlMV5eUVJUaqJQR23q2x9xYuXLlsYQdx7znz
2lDditz8jJnlFd0N07aPG9PQVD32moYJm6uKWpwjKxdVNnS75nd0kBEHeoln8YLlVqM5aIld66j1
ePJLxozef+nW/eUVwTy/q9YR252WL1ttyAWcJcJYnCV6tIGqQ3ltppnOhcwy6XxmjSTYtqtY+3bR
sEEDazFqn9vtDrmb3awdp0Qm2tHt8hftR5KMO7ae0FnADS0cQ+MtjD2wbUXsu3sGP2cy7ieq2df3
xladtXrMuvUdHZu7xy6dz7z3TGxfa20pf3Bs5Zmxh17YcXCMy/rd3DRv9R/paGItuc+xllqYGEpX
bysUQkJYiAjdQpS+V5Pw2xhWs42oqEVmkK0VKg73xJKg7iL36ejUpWoU7bChiYv19SZXCPrhPj/6
BFc22MBcMriO2ccfjL0Ri6P72bGSP8CS1VAbsvDbCpkQE2bolo1sU7EiywIt06iW0ArUBrVNWobh
sXc0tFSqBgIlQWT6sULJ8SI/GJzBrBu8JHYxF+B6Yx/F3hjciKXQefsm/xbOWz9c0w+GxHzV9sXf
CPlxqvr4gBiw+5yttpaMRfxS8Rx+g7jWdI5TN2J70LfSx/hoZUajSerzqdmgVCOtlLokTpIs29Wc
awdrDvqaMJIPBEnyXgS4+8wm6Rt4wSpkCaywL0v+qv0IrTROWyOtMVXidApTT0DZDeBEzsJB9oBR
BjrO/zCDMay8gjaPf6szdv/NsY2x6eQesnEH0fwqkLG8uGrXrEW31tY04IYbbGW22CHm7pk5U8kN
ZDkaKXeUNcV+ZZ3q9IyqHlfdv+br2LcMQ/wkLTEG/JfK6NeGAuy2QlVIFVZFVN2qqEpQqXiNyBLe
pGa64H4JJGpmsSq2i08MfTsF3OTWlHzPwPNfxroH/xjrJt1MBbqfDUb4g4N/YbxYZl78A/ZRLNMB
xaGMNoZYd9hZVLDbBbPdrrF2ddNNU3oXqgJF2ytWT0LDHjnJ2jnBiKUFso9OqG/4087F99f7C5dM
W3qOwy7E7mReIPfNv3NMTb1BT0aZ3JXFRefNYaYRU3L2fYq14MEXsqCW2YalhiFCHw6KHM5uAVlo
TOwGa47tf7hPj/4JG3MPf/BoU3IGC4cwDx3c1w8sTpBanFJcSDH8ndqAlgW1TmPQyuoMjVubzeZz
QU1QO0YzRtukbtCs1W5U92ivUl+r2aW1lGvaNLjJ5zkNnWcZelMF363DLRMFntGw6iBXw4W5CMdx
NIIDgzktcKyoZkWtmqcDpAc9rv3xgX04SfmLxfskbECgnbZCMZWoRlTUY1FhAPUkGrgB3A2heau0
TE28wqHYxbHDsa/RXUMOkCZyOjnAvjO4htn0nRPHzsp8lGyxSuHs/lBDExMSmSuZbhFNNBvDgCAL
HmEiaRAuRMOBKSBEYEQVYThWYFmfUEhCZAYJkwi5AKc0YcQQVlTshvu1SMKB+7HTQEuYZAOYbo4y
HRsQwFkWwCa0J9pAFXpagPGLY5hSsZFBM4JBM4KZL3YxEVGn7PIwStTYOL01pBUJw1xMzV1B3DQq
sGnDI21oAED7OefmEqXVCIIqdsXgZbEbyROMm4TZ2HcMKvo72Zm4KON6ISzCPZ1W2fEX5/C5Yq42
QiK4CnVpRet2jTpdnadm1dz/au87wJpKuobv3JJKKqFIS+ihCEnoIh0sdMGuqEiCREpiCCCIIoiA
DVdFxO6irmtd26rYdVfXhq6uvbu6u/Zd+9rCP/cmIKvu9+3zl/d9vud/HZmcaWfOmTlzytwUx9kE
ZoG5wtDZnAcNu2uEK7CFFsuFsljPO0f88GgbD7gE+YtD3skDpGUbcgxNhvmGHNAERoFssMCABQeG
K/wm9+pdGaiICFMoauLja9C7hkWGDLAcKGGnLw3D30tiW8bX7O7WPdC/e/Chqsm7QkODQxCTFRpI
WSExUhqZZsa34Xvzw/hJ/KH8fl1SbfL42TYVfLaAX8kT8/zEMeJCMSa2YMyJEKQIKgSYQCCiz7HA
eCKtGGh5ABlvJ7YT8XiOEsdIR5QhrBB9K2nXx9Aj932UAbfJz6SUhSFG5/w9jKY+clmg1FHRVYdX
gwOfYPecuGnFQ8s9pa7Qt/QyjN5kqEKrq/em982aX48zg1Ot+HSDRigRJ7wLRJ3eXydOOygUS8eu
/DEOymV+2y9ENvEQ+iS7WxCntomRXChPjIkwIxyY3CDxjrafI3tAgG1tax0IutnGgXjbPn4qZjGz
yHysVYncjIbCtRLYeOH2WAR0Ah1d59jjErqMrqVjdDobKniJ13gbwXiJDWWVmBAVggSQXsmvpCkK
IX1/306uiaBdVHEvkVc3QYBXvCDOa7Cgn1euQOU1TqD3gqJKOp/Q5nihlNRSngyAep6Kzy3xzgF5
e9hAWQWXzgID/xPZhmmG/S2GR2M9S4B7nbPOxTskPbXvrrTdK0ERcJ0DxGqPwYa3dbLh3u7Bg8en
zRuwdjk4e9XwKEoBVMOzzbjCwAB5T3ORs23Y6YU/AnqIl2F1r0yOkBfmHhphI5DYBR8gdR0ME4gE
yrP3jrQB+Cx4ppEhoIIYUkHe/zEZfGYks4KJURbNeMEKdfYHu0wkGHwNEw2+hBO+6W0KDt0oiDMa
hnWHSP0JBkbCKI2GYgSDyYZ7QcNQBo9bhhRB4+nI4gVRbj+XBBCumBvJHcHFjCE81GRIhEkvtCDs
tptboPKAzspNUolgEphBZQeXl9yL0XqGng1jTSv7IKwvlx+UjEbhvRlJzGhWD/ZwNBUfyBjK7MvS
oJm4mjGaqWJls0sZFUwtq5g9Da3GpzGrWXXshWgDvpDZwHoO3hISDgxMxSgf90UleDgqx0MYYUwF
K5BthpNeBdNBEYRKYMZqLzHJEqW/mZAGlCQEtp2PDLOwD2J6wqwCBSjbrBKujBYuKoNeQf7GOWAS
QmBPOIGuhB/oTsSARKI/GESMBPmEDown+KaQxpSD9gcp8CTCbBBU7EwyMjaHmTnjkEFjGGB4YXgH
cw2Y9QsQggpAQDP4xhc79i4Q2rU2HJB/pObo3/Yzvh2fhPAQGZId2ZNnTXh3se5N9LYbRAyyyyXU
vFy7Yledh7YrBzwRi70s3SM5vCB3d+dVXnzOKktLmRjIqn13KnwVgCcVS1GplF7dZZfceElM+Q4K
0n8jLbsXKTSUggzggs7K0IoqQmsf4A+dd5egj67toNVP673GOzDEzNoqMjZQ42nf3y1AF7vsYoFK
CaRLmxoGHfN2DAGgEvgBgWEhcL1Ps+AKogKcvUUic++pluFCa6vDC8YtggEHk5bRM0IAeDyPPcfe
45D7NW33iXCaCOFD7z040iUOxNkP4GXzKoiKLjRRI5fPRGybMEuGYBKyW0yzYlczWhwonkiFT7IV
YVL4pKtCJ48AeRMjBEYGBMa7l3DDlSvD6iN5hlUgJ339mHO/GmZkT/LLk7v3kM+cjkZBW7xZ6hZM
E72/HJ1maDU8aGwW278/wWV9DSVkINydMXgV4o7URTrLsAhmaBe5bSQWhycyEpmJXWJtE8RDxLni
cgnXTQK9BREUNNLh5ZLCaAEr+KT5lfEBn281z4wf4QJcSMEUw0oXF/t5iCUfceG7VLhgLr4ewMVj
hAewmUTbJSVNGhlpk7f8j8j7V0rbeRl9CsJ0wRFousom76CMBg5uqOkaxE/ABeizOc8GDxqpHjbk
8cTCg339LEK9PEZGfbFw6ezYfBcnf0u/fi0OPXr3vj538Z2EntEKqaFVKLOytN++uPlrsYXI28LQ
KvWFOzS47Rb+GO6QOSJBwiOl8ax4mzF8TOLJIU8+FEUhYj2PywcOjYSlQIRWIzudbCcxdjlCFozC
F/GI3CeS9AwPUvCcnVDBB9qhc9CJdPyxoSmjeXTry/ResQczVZWxABppt77O9fW6CfKCosReoDsw
m3ktJSHdyxFcf+uEuvO5mxavnOsK6SR36h1eg1ggdkhBZLoL6sXyQ7uzYtAkIokVw03kDyaGsPrZ
qmm5zBGiEVZ6tJSp5+pFIvDEzs6syyohH2HwGemMLEYh9fOtTWaWTKZlNbLbwdcB2IFq3i57ozdO
Pg1qN0Ht58nR6COTq+7c7nkIXI1OB/7u3RFGy1bd+XBp2cVJhg2GJtAPeECVIDIswEZrc2oY4Pfq
6Wm+hhtybyADXYAliIPh1Lt+Y3R5JVACvRAEq6I5QD8+MtIFetNNFoDN4K4S8Djk94/b8GzENlCL
MwRm1bzhMFxCOVBqHkEngVLcIVTwFhJCHn9oJYy3lfbA0YI8Ks4BflCKyG3Aqmytk7xHJwBLw0tD
04IFV66nVikIM7owMZ/5/N0sTPNcfPIkm0lKg2EQ/hieBzfoA/SLDE62TO6a7JdhmeGnthztN55R
ZlbkXObHtnCx9prnyHfjyRutYcwxj2bHZNq6uFtA6QjwmWS7yx+qJ/5zKB3tQYcveZKpp3gZrp8J
PcIAWYN8kJugj+VmcJ8+v3xRdDvdO3pvgnK8o9guaknmwzYkuWf0AdWQuWEckGFoEg92qa8vLQnM
qVxyMSw8yE4Euth4uTpJlD0sAsLhHjtNO5bQI9nLTfGuDbzn8JbPbp7oRNrkNdAmC+EJsIQayhlY
mFt0F2gtcMDnMOaa87kIB0C2rGXWI6xRPrua02JlitpIBdXOFIzZ/NvjTMpSB5LrbkEIDY1cgSgp
Tq4KhXKRM2JT3rZWtGtsrQSS5fzuDtRJPyWknv2JtBPLYGZnekIqj3QklhgDAQzGADyAL0aqicUI
4AMUpDJHMLXQRWj3DyLanyyRT5RQITkPy1ANyvGsZUBg4g8VUpjtI4Xk21KrTYiIEYSWIBGRrBhx
GMfDzsZx9PNQFqTIsMgo3BKzs7CTWq+y/Mp2u+U2W4bbXBu+wEqM4lzmXBGfx+M6VIvXWIFqVMCp
5q5BUD4K/3l6IJ4yz1RPrSdudGmgUPAfhTw3rZ1ViFG/C6jlM54ncvksjFJA5RadGvHnhkaGUNg7
OkApJenMWDNKs0aWd2Lktj2GRrpQEB/TtT9m9+4OKk8rdHFx9LJ+dwfPKu+dljViSM7l1veuqDxd
50J9uMW065C7z+86739n1y3+2a5DkqhNJ3XaNcIN6jQyNnKMFFo0MfmO0BzyoDV0tYWGwoU6R4+o
aw54vDvHPYGBAf6fuZsj3Ax7DFdh2gPigBNwA1GGOGdnF4lksL9/H1dHdydHyaAQ+SBUDlXQARAB
LIAVCDfsf3/ZqzQ3q0bq4WTn6V43amithzv5IQFovw1KIhyuEmkdIiK9YtFYXqwkjZdmruIpzaFj
Z8e0ahTwzXgO82iWbFsRJNyJa8usNmtxNJpxuF4RHWZcRJJKnfz2xeqw5Ebiw/vF9dqWM6KmB7ls
0JSfuWeYoS2FptwlTUqa8ml34pNTPVwN3kRbEbTlJwwPVzRAW36cy1hF6S4lpbtIWkMj3UlLliQZ
IsmVaPllEjppxYQ80owB278YMpOq6kSno+AjM/aJOjI0DfxaffIFZcaGV/ai1E+HHTMoUVbPHh9M
GVQ4P32wZJTkYRfxUYgQCd4OzLRmKNT6pNdgxeIH4XN5PDaP/Nlika8ImNGrmS3m7aEhpDDivRep
6DNMmr7zYcEuSqyynZKKY8m1K9kYby4TYmYMhsj6PR/PWpkdQ77fHCDDobUvg2skQ6oi+Qrf3tY9
fYtAKbvUtsiZLiadGkfo0hMSmIUKoPawkcJILhU6vqSbA8O5VfZ8OkmqOXnpQOeuwiwdpZNsBJMc
behURMeiIjqFVgHoxsBC2Cmm8zL6OmRQl0H5C0CEO1J2wNIkvUaRhv8D/F0cFcb7Z+OqW1Fd8DLD
EcOTxufxjrY9o4Lr+4zO7t5XOiV4fgP0TFkTfosSp7aqB5QEKoMqIuvrgHLDuWAnIDXvamPl6Ovj
4SpgWvCkqyc0X/CzN9wJipN5Sz0t2BZ816WkFW67j40lViC2SHykN4uwJVAeW8tG2XwOfRWbxbO1
tYK8cskHbIg9zx4wOPxqFkNDJ9n084MGjrpj8zNesFHmmbxWdzU63aQhpjbKUdDxgMoPG9utatiZ
1oYGkAP6GL5BedyesXZDhA4snmDNSZTzHB7cfc8NutCBzs4e1iw475dttwgmngX1VXikB4tmQ0s0
H2KeZ15BLzOnoxYEkyeYC0WbEmyj2iKdaSvqEpy8YPSlnneSWsvkpbmR930d9MDQkmloUn5VuPMo
GM0WmSfF+Wj9QU55Ysr50+iV9z/1G+Pq6uTkiNlBShyg5rSAlNCQvEiXjQR0aLqgPYmBBA4TrRZ2
IPAaDMWUIBfVg3EoToWdjkxeEEZmCIFiPBQGpRgUSIYvI4WBIhgf9ofhjPGm0EgnDMGoYAz+MfaT
901UAMYEhIUhxZBjSAPjAQ4AnvV2MZ717h2Gk9LtALWVFaSMjsyIjGAQ8cRAbBCRjRGwgqAR+FrQ
As1eLQpnXkHfRkfpNTAyZGN0whpzxbyIYGw0MQ4twsoIPY2NkkQ7Q3ppJNEoQhjfjsIjcFsUZfoy
U5jUTR35DNx4NsnHZZ3ozthPZYz9JPHtsSO6EiBA9/4LQ9lmQwIoAzPQ828AWIEPgbTPR/mEFVxf
DLGMZIHzcHEI4xs1SOzt76UhrN5W4RNQPjB+y5jYlHojZZ3SQcCkkhwkUWkd+AUditGwYTA9wb1h
2o3f7JyIdOIMLZvWQntJ96HvoD+lP2UEwDSA8SOzB3M1mVh2rFbWKzKxD3+azOLM5nIsOaM557n2
3Hncyzw6lZx5s3ln+a78cfxTAo5gvuC+0FdYTqXL/2PSs/+k/6T/pP+k/6T/3xO0tz2w5I5PESqQ
9g9zAuheKEwwiuBIhQnGEF8k3wTjiBlSYoIJCFebYBqEF5lgOhLagYeJcJGvTTAHJCLbTDAX8YSO
PIYAHINzcdHuJhhHHFBvCoZeA8JCB5tgHLFB4ymYButpqN4E44glqqRgOqxnoFNNMI5YQ9+MhMl3
bZuRb2elYBxxQmdTMPmbAEp0qwkGCBezNsEQD7bZBGPIMKzeBEOcWLMJJiC82wTTIPzQBNOR4g48
TMQOx00wB23CJSaYi/Sl7aBgFsk73c4EQ97pZhTMhvVCejcTDGmme1KwGUkbfagJhvTQEymYC+v5
9AkmGEck9AIK5lN4hppgEo+xvzm5hvQlJhiuId3Io4iiZ6sJJulZQcEWsF5EP2OCccSFfpCCLan+
L00w2f9XCu5C9meITDDszzCugy25p4xgEwz3lCGlYHtqT6eaYHJPjXsnpvqnmWCyfzQFu5B7ysgz
wThixzDy2JXqX2eCyf5jSZjRaZ0ZndaZ0Yl+Rif6zTr1N+vU36zT+puZ1n+1RCGTyyRJ6iydplCT
rZfEaHRajS5Tr9YU+Eii8vIkaepROfpCSZqqUKUrVil9+qt0ysyCTIm6UJIp0esylar8TF2uRJMt
0eeoOiEapdMUacnqLE2+NrNArSr06Wjs1o4kWpOnJAuFcDpJgI/MTyLt6ORh6tSV7JSUqYfoSyQx
mTq9SjdIUyTJzyyVFBWq4KyQkmxNgV6SWSjRqnT5ar1epZSMLKXoieuXGAVbdVRBq9Moi7L0EnWB
pCRHnZXTaSx8VRdk5RUp4VC9RqJUF2rz4ASZBUo4Sg07ZMFeqgK9j6R9bk1BXqlEqvaQqPJHkoM+
oCpo7/xZiqjuSnXBKIlOVajXqbPIpe40OxzegSuUIkCqhrPoVfnkvujUcFalpqQgT5PZeVJIc6aR
UpVOAtnVwKlgXqTXFuklSlWxOktF9slR5Wk/YihHr9d28/UtKSnxyW9feh+4Z776Uq1mlC5Tm1Pq
S05R6Iv0R1SIDlEimUgB/JMgybA8CtaoED0sf9yqR4oAB8L3PmnJhmXlJ7U9KDz6j+rl1OfNJVgd
tgf7HtsH803IathbAevJNgmShKiRLDhCgxTCv2yIQYLEQEiHaKk8E9aoIVSA+MCWKCQPJgmSButG
ITmwrZAqqeArOW8xRZvPJ9SpqX5GvkicStieD191SC6sI+clW3Jg7ecpGkWViyBN7b2z4Gs+LJMz
qKn5fT4zstsnlETDljxYbm8pNHEnQQIgBhniR31O/1NMHh9h6tqBKYlaIyP1JdTqkXzpqd6DKKol
FK+l8LWIWicjr8Y1yaZm11OrQ5a11Lh82KqncChh3UhqbPv6xCH9kES4E8axuk4tWopiJZwli8Ko
pvgqoebKgvnn5zWWyb5ZkJ8iam+UVF8NzJVUuxa2GDkguVea5lKbMGSZcKmonJSTj/km2/MoSApH
ecBXcv9Hdsz0OaoKPsH8z9foA3YlhWkUrNNRUqKn6M7qkOrP826c/VO6QjutAMmJkRc9NV/7eSHx
G3lVwpoSinMNJfOf59S4zpl/WVMVta8aU27kyggXwZKWyiUUtcUUN6oOPGTPPOqc/Fc7lEOtnBae
Al+YSqjkQ63oX6Xex3TOfCFcSnE4iuJRCzGUwtp2LgqRv9dv6s/qt0RYnwOhYoiB7FH0SY+e1EyF
1InRU9x9qvPuQV5zkZcQyz3Y8nF7f2rkx7W9qO/cKKb06KetqSYei6D8GCWk9L/k7BOqcDEejofi
MXggHoxH4mF4Ah7yCYa+f6vdE0jqgByWPm0hJVgL+f10JRKpc6+GsPELTZC2IuSnv/lQKYaQXjEf
AW1txm91oX7S2RIxfdsLRnrpeKe4AEFYiD+0IiAvU18Ax0K/MrFvLwlimZaSJEHs4Fxt1Iyd8o5x
wdA2fH6cQ6cRoOMVIGieJisP4VK5iMIDTNiglwi9Z2OJb3p1I301BMemYFOxadh0hHzn1mvkDWwS
U5/Ugx4bArAZFBa9CZsJn1U20vFT9VbDZFVWg2lMz5peNa84gI4uq7JKgFU9UQDkbBmTRnhxMdSG
QGSZNJYXDeCgKggF+LJ0WR+Zd6cau2aHiXZIdyqlQAEqpEyEijp44WSSOXZChosOhU68esZ+/djs
n0XlG774Iqmrqj53WZVQLqvCR8iqsMRlGApQlOWzVnA1tW3o4uP720fbQ1K0ci+ZBw3rh7PNnWI0
2lId6WpKpFkeEnlISNBHTqmP3EFmZ+xs8Vl3Ve4oE5PtmLn1h/Y0jUYviSrS52h0an2pzMGKIwuS
BSvgPz+5TDHYiiNXwGIArIT/BstKqbWCSGjmaL90ublMQBYY5qwBmYU50GfTw2n4Mi5ZSTenp6mU
+ZoCZTthrL8jzFnmaCTMpnO7UiVJV48qID3B1JgoWRVwknE6NhAAAsGqAA+B9Sy0CgBke+n48xlb
4kK+9l8nv/zaNaB3yf634iU/xI35/XSPu2enf5ebmDby+Xz0u6SLvfN8XcJV+046b2f32l5RdC1u
z5qZ3NRDrl5Pl/3GcRafjnJ5M3L+qS5xK+fEi+e3bvF1+i6+a7nmkoVD6PQQfsi1PR7Ps0O7AkWb
wb3XV9/mgdpFb3duzqqoej10WWX15PqNT3c0LD8V/FXqZCv32uRrspdI2PPDr8Mq99Y8ygtZ5eP/
cqvPN6zxI2eNzV7UVMip+ebp988kLSnCGVnHvS8p4ro83hXfGJqabn0yu0/pmvW1R/qHL61KrSsg
NgUcGOeyJy07bH7yCa8JfgXVPWmnl/wYX4MW1CAr9tfeSCc/pwyWV76RVb6SmcPltHfFzWQsGgOK
LkHQMUxW2UzWArxygaxy3kT+kB+1v6t1S5z7TBBtTqpvO/6l7l8vb1U85AAyrXv3OsHp8JdZD29E
yngkjeYAtOGEDIMvMnuygotb4qIT9ieLEe2Qb55c/j55QZ9Yn+WxWX/I2GQzDye/1aim09HBSIkY
t3bDhHi3pyd3J+ubB7rrPYu21Lxfm9gwFkm6d+yB9VX1IW5z+TM05vCx2hN/pp84uHRPf80fWbGr
Y5HHjUcWnLPbwV7ahdNw4bLDeo/xvz/6qnDdzOsh9WFNo3cH55+p+8b5/Y1759XMWXV7DLeQXf7P
XpW/5gt9iAcejXOic6VjtgfPvEnnHM3Iad0zMSo3++td23fV+x97ivHLy16cuRl9Y5zh1q11hpc3
znG2aM/Pvp2yLbi5vOvZsCv+7JFB6NLK0c5TXg7Nmrlx8K6QCyOm96u28XsR2rSsyqx5+LQt3tu/
XHl87WXJtn2yLpMlIo7n7rTnUTeHyW7PlqprD2h/frZq7cmJ0bpiLtQxZVDHjDTpmExwKpzShbzO
54iAeubfeKpJhRMCdUyQQuEvU4SQCkcu8+soyion/T+hjUMJDhRdPCklNa29O/Y33f9b3bNHNuVt
nO7r9NwlU1IQ5/17z9qHbRoUGfyscFaV26+NQiT9kl0Vt/tJ+117XkXPmHf2XbDNnZbXtx/+lInt
W/bT+aKkoT1WPxr2x5mf1UNsCu9vsZuBt3rELlMO8nVoyij4Ya11SJXq+1W71xbVdblfO0/ktqXC
rXjF2eCQ6ttb3M5Zv/a6d+ao5eC+jk/nzait8TA87+3967Q/8Yjxra2Ns2s4Y7CffzSYRQe0XdgR
ca0+jjX+5YWE9UP+KNbZlziPnxLwvV3G5lQsoWc+fVW/uibaxK8q1/dNvlh5/s2+6P3yvf0488+l
9xbKHvyysq582Pdlg0W1jK1B6mUPFC7TGQ9enxXtvPmu9f4KC5Pu+VNW+eLzuufDKQ4eSxQesVUs
HD67pt83U3Yenr9JX09tnz2PPPXwINMnUnrD3hm3lllO/PyxjyU7iPEwWagsZFnQsoAaP1OYnqXL
+yhM1+aqyVpf0+VGoW9MOhQ8H1gl69VOIQB4d1k3WXB7WYbWeP9t3E8hVOk6YdJ/dKAo7SPFJq01
5zwxCDTRxRdj1u44HP3GReW/oWjjGFl947ZJb3R3DK1Bv3XTNvWRcHeO2Xr0+bk7U+9KtYXnHt06
OO7xk/7+gydWPeBf0GH3hckPr3Gmj4tNMcssel+wiH7tpNdga07IxhHvL7fha9DlF9/UL9+158Do
vqHy4Xe8C44/SfK0e+pQPK7mm8O15zd5Plp3grv/ztKKu6fuVuv6VlkXeB5ZMnerjcMBzZwrI786
kJC7/uijsNm3N/uuLSsJGTUaGVe1GONfz5rb2y36+lynA7XsH0XLh18tVOgCHdqOeBxySUvJ7nXU
3n71IbcQdWryqocHaXk+OtsnjpfzXXpNrLSILF96Qh8cnwK1z2KofSYbtQ9/NHt+yn7Eda3gSpx4
YNmo5o910L/H1wmEyidQJpf5+weRqicEFv8Nvk5fdb6qUJ+Zr/2nvs7VoIK33xyJjh9jfeRkr/D0
/W/WinZ6K3YJU9KOTHoU7nept3y2dNss5U1xavXOgwmnK4g/fy/aO+2Hr89tUGuzx7pn3922/ffJ
La2P17wXrmAPcvLwPRV5qT9uW/xtvjI/vu+Va0+u71s66YeJNyoS0aCGF/uXMPo75PRsvbS/eKjv
+G2u+Nb+Q0bbZbVNLO/++BzumhRSoqdnHBx6sSbIu+go975DCLO82LA4r6Ds5sPwmfOWjOEO90yx
HjlCseTMpGQvp6E5cdOu+1bzUze//tZmRt5j14Xmfx7nX5jMfV5VXBh4eG5Z84kRtIfExhq/7X82
DKmOqh44uaFgo9i71wnNopibo+9WuNXnGvVNFZDCFXH5nMZh/M/wdvg0pimysADUFzN2UpSau8kR
81r81ybUzNy96P660KiYwz/KunQMEKG4mQMLSafC2Bgk6q+e0Cdu1GcUVEOSQH6wPHWXoP7LTDrg
TtfGzfi9sO+eCCbRtW1Hn/TJdo9CZm1f3p99ffq2UNvTb9etOrp9Ux9HWw1DPSEXa3bq8Shva365
044eP1U/m8HbS58aeODBhHvajLils8+cOHmtfv+tfZ6t5Q+PblCcq205nvV94Glrx33F10MXbLEt
XOJYd3HrVmHf6c8XHVTFL5C6LRoxlRf6g7lqbK9dp9ZP6payceTA67J790Lsb095ejmk8rW543Tl
xCwa3vh0ARrjO65H3c429JLqdfz1y5h+zhaiwOzE4qvSzPJeT6wWCRyDUbvadbRDjYodv0QeTg/b
s3rK9bvZQTOeOzUuOrGxpG+fbud1sZudX0IFtQYqqNnt7hGtoavxmda/zz36RBGQOioYekMBUDUp
5JSO8jMW5WRRVrnlX+EeuctcjUWHghi1lrw4j02Pk8SlJ3cLigpWdA0MDo7qGtIjRCF3lTkbebL7
K09d00mmJOkqHXnR/t+qt7mVLEm0dZ+yS3MfLXx/tfb0W+5M8/trgqTCYkNS6trieZ5zet5c3V+N
/tIwIWnylYoxvxchV3bF5L3VrBvzh9fp8tknG6wWf3lo5+tXE65l3uoqc1jk1rU44tcejfUbLk4J
unji92enhnz3LufmU+XMhXe/E75evrf63flpJ4mwPaA41R37s3q7Zc2MEXszPLy7n1r5vmlwgH2K
5f7giw6ZEWGBW/qLLErmhvLfIBvn/JwRtNZ9V5Z3L1Flv9t591d7zZ1Rx52wHFlZ4kJv8tRiOzxd
vlhw/VCzU8K+xEG0kr66mI3hymtzqhkDtxnu1fZmBm7Z8qff6gmJzaUVikEe3CXfvrjZfUnEwx6h
nd2pDwpBOrduHxr64HLDzvE9eG+OP5+wuO30Xzylz2qM/xNPSV+ozcr8v+IptWPSf15Z/8X/o+3/
nLZCHq979/OZuuxjHrcHt7QiVROshh5yGSTc9fWr3Au1hhnHvy0W2zq9fHXr2NaWKGATtL5XUKP2
zQm/VdLpO9jb9ObS7VuKbnkyf56WcqMpYt52f2Hlff41+6s7laeSU0MTp77vcs11w7nG2vsJ3//y
x+soqwzwYEDd+OKyXzSGWsm6OYumL9g33GaZhczlZvOEzFn2Hh7f9f6iW8ykKY+vn5t0LcU7IPS3
qCiwBjFjPz3f2/Zk9IxxG591nZHhcWvvjIpZFsVbR7wVua/RCLOipQO7TQ2dFnln+6ETswfY9eif
O/P47KT+BHLsT1lkXPKNLnV7XvD/uGZzQ+qwtc/Tkptut3cxK4VXHbr9GCevwhdCjTUPBUBWWftv
DNn+Ekh+uOpaVnmYtE6mbWNicrPO92hw3g8ltpwr69xqAbVGx0BcDkV9bOUfgbvNORv+bBofuPS3
/ds5a4YskGV3GmImHyjrv8x7ouc/f7r1pdtEl3/wLE/ykWbCqwDSJ/dnlm6qcuH3e2zu3Vj3tg1D
X1TmKC6dlx8uW/X6whJu41T+yTlHv4reMMVjWH9F1fTEa3Ol7KikgTtPPY898mrv7BHVSYdCxw6X
jLLoX1F28VnfgfHTNOZJiV9XFzeeKNEPvRD88Bin7/ATh+JLYh2LmtnrW+68ebMx9buCgDVitXiP
/aZ5TY1PlTWMq+kN3wSv3dSc4rK8nD6lsltUBC+Xv5x/vGXJu4OLjwp4kwuPhYz9/c+qg5uJy+LG
m+fvhOUXd5/mlL5sU+Pr3wKDMxIvVUTNiruHDhi1J6zK4boAhNIcQHBj4qLvBjitQt7aJs+bFBw0
3nKybPaXg+cdfrvlypdWPvX9xH16flmFimVVqO2HXaLJq1AzWMX4l4vjxybyL4abbhLHZRky686y
yP5w8QvgnB0thJwHLapMFgzNq1zhF+A/+BNRjNwctHsx/+7d3n2+uvD4j7vcY5dK73ykn0gRGf/w
8Lkj90ejCT/Z1Y+xc+5+IGbnGV7mC+tRdmdDUl5x1wQFMpi3LndPPmHnddiz4NyKhlkP3oyxPn9x
aIb821cbtu7o1twU/INM2iBd9+SxqNaMKNzq/dXIH1a0bVxvr+Hsvftayl3cuj8w6m2/yvVDTw9Q
TJ5kJvjFv2hz97ezfGyss3Y/SHONoL0cuPbtk3LLoL0bjz+ukj7LexGW3nDo+ewQ/4u5e4fYomml
VhOddiyYEGifPeTk8jlb5G/oy/Y5zGsYxrjNZl+fYvlj9OK5BeNWbupvHv7y8sPZ05KenZkuvLGt
WJI6tWVO8zjfEznWax3OdmVFi8YuTtrYk8Osqgw+W/oNxghrTRmLIP8LdZWIFg0KZW5kc3RyZWFt
DQplbmRvYmoNCjEyMCAwIG9iag0KWyAwWyAxMDAwXSAgM1sgMzQyXSAgMTFbIDU0MyA1NDNdICAx
NVsgMzYxIDQ4MF0gIDE5WyA3MTEgNzExIDcxMSA3MTEgNzExXSAgMjVbIDcxMSA3MTFdICAyOFsg
NzExIDQwMl0gIDM2WyA3NzYgNzYyIDcyNCA4MzAgNjgzIDY1MCA4MTEgODM3XSAgNDVbIDU1NV0g
IDQ3WyA2MzcgOTQ4IDg0NyA4NTBdICA1M1sgNzgyIDcxMCA2ODJdICA1OFsgMTEyOF0gIDY4WyA2
NjggNjk5IDU4OCA2OTkgNjY0IDQyMiA2OTkgNzEyIDM0Ml0gIDc5WyAzNDIgMTA1OCA3MTIgNjg3
IDY5OSA2OTkgNDk3IDU5MyA0NTYgNzEyIDY1MF0gIDkyWyA2NTFdICAxNzdbIDcxMV0gXSANCmVu
ZG9iag0KMTIxIDAgb2JqDQpbIDM0MiAwIDAgMCAwIDAgMCAwIDU0MyA1NDMgMCAwIDM2MSA0ODAg
MCAwIDcxMSA3MTEgNzExIDcxMSA3MTEgMCA3MTEgNzExIDAgNzExIDQwMiAwIDAgMCAwIDAgMCA3
NzYgNzYyIDcyNCA4MzAgNjgzIDY1MCA4MTEgODM3IDAgNTU1IDAgNjM3IDk0OCA4NDcgODUwIDAg
MCA3ODIgNzEwIDY4MiAwIDAgMTEyOCAwIDAgMCAwIDAgMCAwIDAgMCA2NjggNjk5IDU4OCA2OTkg
NjY0IDQyMiA2OTkgNzEyIDM0MiAwIDAgMzQyIDEwNTggNzEyIDY4NyA2OTkgNjk5IDQ5NyA1OTMg
NDU2IDcxMiA2NTAgMCAwIDY1MV0gDQplbmRvYmoNCjEyMiAwIG9iag0KWyAzNTIgMCAwIDAgMCAw
IDAgMCAwIDAgMCAwIDAgMCAwIDAgMCAwIDAgMCAwIDAgMCAwIDAgMCA0NTQgMCAwIDAgMCAwIDAg
NjgzIDY4NiA2OTggNzY2IDYzMiAwIDc3NSA3NTEgMCAwIDAgNTU3IDAgNzQ4IDc4NyA2MDMgMCA2
OTUgNjg0IDYxNiAwIDAgMCAwIDAgMCAwIDAgMCAwIDAgMCA2MDEgNjIzIDUyMSA2MjMgNTk2IDAg
NjIyIDYzMyAyNzQgMCAwIDAgOTczIDYzMyA2MDcgNjIzIDAgNDI3IDUyMSAzOTQgNjMzIDAgODE4
IDAgNTkxXSANCmVuZG9iag0KMTIzIDAgb2JqDQo8PC9GaWx0ZXIvRmxhdGVEZWNvZGUvTGVuZ3Ro
IDE2OTAzL0xlbmd0aDEgNTczMjA+Pg0Kc3RyZWFtDQp4nOxdeXxU1dl+z11n5s5yZ8skmUxmJjNZ
J8lk3whkyIYYlAABEiQSIChQkSAQQYUkIIsBVKKiVatY2lrU1sGqoKKl1loXVHBp3aC44Zq6VK0L
mfneczNgAl8+v34/+H1/eJ9wn3vue84992zPOe+5EzJAAMCOxEFj7ZTx4y4w7JkI8NRFAI4rxtXW
1UMauxfgr92YKnlc48QpYqmxEq+343XZuClTq9/1f5CG16/i9fUTmqac9VzrnZcA6NoB2EcmTgkW
XDL58igAofFt02rPaV72+RWLAIweAP7I3EWzO35lLgoAbNiPaW6e27nMM7p+ghWgbzNeH72g48JF
Nz84bT3AVfMx/ccXzl7aAQ7Q4vM6MD/5wotWXvCQZVMDPnoZgDs8v33Rik1bDnwBYMPopfvnz5vd
fui6lw5hXjPRUDIfDbJX8yxeX4/X/vmLlq3407cGGYApA9BkXbR47uxVf1jfB3C/H0DsWDR7RYcw
VsBnkz2Y3nPx7EXzPvrm7iaAR/B+aW/H4qXLotWwAsvTSOM7LpnXkfj5VQsArsE0bAnQtuXF3/+D
P2/MLFPlV+DUAMXv9u69mJ6f2vrEU8faBq6Twpr5wGC9GBgE3qeRIpMB9GkY/4EUBgOwMBTn0zTs
bqiI2RmQYSxMxYCX/3jQwpnJtcCDhr+ZL4RskqqcJ7DbYQVzpwYYSeBYnpMY7g4QoiHwnEdblN54
zhSPB3P3wHYhOdICz2gk8ns03E7juFb+IK0pEI1SOXzMgcGDTYN72HtIPpxBsL+EV0eK4zujd/NX
QD2/DdYJHhjHm2ActQtFeM0Oho+DWwb1wmOY9hieJ8B67iWoV/K4Fm0roIj7J4T/07Jxz0M6dwzK
uABMx/NU7gloVuzfgp2XoYwpwL4aAvFpKKN27g1o4Y5FX1Pqt1C538ymQzfGXaaUfzP8ScnnYSj8
T8ukQoUKFSpU/P+C3U1IUlIeGSE6ZjcaidEHshGDOX4Mg7Ege1gy3swTIMSMYTMx8ZBlNhMwQ8oZ
LbsKFT9pUMkhQA/faKKgAU00gnsVHbJOYQkkZD3okQ1giA4AKhfZBCZkWWEzmJEtYIkeAytYkW1g
R7YrHAdxyA5wRL+HeIhHToBE5ERwIjsVToKk6HfgAhdyMiQju8GD7FHYC97otzgRpCD7wIfsh1Tk
VEhDTkP+BtIhHTkDMpAzIRM5CwLIAeR/QzZkI+dADnIu5CIHIQ85D/KjX0O+wgVQgFwIhchFUIRc
DCXRr6BE4VIoRS6DMuRyKEeugFHRL2EUVCJXwmjk0QqPgTHIVVAV/ReEYCzyWIWroRq5BmqQa6E2
+gXUQT1yPYxDHqfwWXAW8ngYH/0czoazkRtgAvIEOAf5HIXPhXOjn8FEmIjcCJOQJ8Fk5MnIn8IU
mILcBE3IU2Eq8jSYjjwdmqP/xF0L5RZoQZ4BM5DPg5nIM6E1+gm0Knw+nI88C2Yht0Eb8myYE/0Y
5ig8F+Yit0M78jyYh3wBXBj9CC6E+cjzFV4AC5AXwkLkn8HPoh/CRbAIeZHCF8PFyIthMXIHdEQ/
gCVwCfIlCi+FpcjLYBnyclgefR86oRP5UliBvELhlbAS+TK4LHoULofLka+AVcirFF4Nq5G7oCv6
HnRDN3IPrEFeA2uR1yp8JVwZfRfWwTrk9bAeeQNsRN6o8FVwVfQd6IVe5E2wCXkzbEHeAlcjX438
NlwD1yBfC9cib4WtyH1wHfJ1yG/B9XA98g1wA/I22IZ8I9yEfBP8PHoEfq7wzXAL8i0K3wq3Iv8C
bov+A25T+HbYjrxd4TvgDuRfwo7oYdgBv0L+lcK/ht8g/0bhO+HO6CH4LexE3qnwXXA38t0K3wP3
RN+E38HvkX8P9yLfC2HksMK7YFf0DbgP7kP+A9yPfD88gPwAPIj8IPLrsBt2I++Bh5AfgoeRH4ZH
kB9Bfg32wl7kR+FR5Mfgj8h/hH3I++BP0Vdxj0v5cXgc+c/wBPIT8BfkvyD/HZ6EJ5H/Cn9Ffgqe
Qn4ankF+Bp6N/g2ehf3I+xV+Dp5Dfh5eQH4BDkRfgQMKH4SDyC/Ci8gvwUvIL8MrUTwU/hv8Hfnv
Cr8KryK/Bq9HX4LX4Q3kN+BN5DcVPgSHkA/D4eiL8A84gnxE4bfgbeS3FX4H3okehHfhPeT34Cjy
UXgf+X2FP4APogfgQ/gQ+SP4GPljhT+BT5D7oT/6AvwT/on8KXyG/Bl8jvw5fIH8BfLz8C/4F/KX
8CXyV/A18tfwb+R/Iz8H38A3yN/Ct8jfwffI38Ox6H44BgPIAxBBjigchSgy4DwK7F6tVgssy3Ej
rAExuyAIogCiiEFeI4o8NQxNxgv4g0b6UkqLYeAETsAlQzg1RxUqVJwW6HQ64DiOHyE6ZhdFUYNa
pK+gBQ0NiuIwWQqoVyGmXR3VtapdFSrOMCRJQu3yP6JdDUIEraJdrUYrgkZZg08ApYwGUaTalVDo
uBBzmB7EU3NUoULFaYFer6faHWmB/EG7KFx0r1GmOi3Vrua/066GaldPdc2LvAZ0qnZVqDhjMBgM
wPMjajdmR+me0K6k1VHtaocmo+uyBplq10CDuD3WgASaM1p2FSp+yjCajKhd4Ue0i7tiSYv+NQY1
ep2ES6p2uHa1g+syfbVloq+/ULtaVbsqVJxBmEwmqt2RnNuYfah2DZJeq7ziGgJclVGwQ7WrQe3q
QXtqjipUqDgtkGUZBEH8Ee1KkqTX4d4Yg1qD3qADSScNTabTaVHMOh3dHpuorgWtqAOjql0VKs4Y
zGYz1e5Izm3MrtfrDRLujTGoNRoMVMbD1l1clSUUtES1a6a6FrWihNrVnZqjChUqTgssFsv/SrsG
I2qR/vaszkSDBv2wdVdC7Uox7Vrox04aql0TSKfmqEKFitMCq9VKf/NiJOc2ZjcYDCY9mKh2Jdlo
okuwfmgy9KhRzHq9ol36sZNGJ+pBVrWrQsUZg81mQ+1qfkS7RqPRZADZhEHJbJL1aBimXXShUbB6
A9Wu1YBBrU6D6UF/ao4qVKg4LbDb7VS7I21MY3aUroxalDGot8hmAy7BhqHJDAYJN8MGA/1IyUY/
MtZKqF2zql0VKs4Y4uLi6C9a/Ih2TSaT2Qhm+p9B9VZFu4r/fAK4BUYxG41Uu3ajwYja1RrBAoZT
c1ShQsVpgcPhoNodaWMa064syxYTWKh2DVazxYiGYdpFF9poBKOJajfOhEGdXmsCKxhPzVGFChWn
BfHx8f+TdmN2WTajdq0WDBpsFisuwcre9wRwN4wLsclEPw520F/30BlQuzZVuypUnDE4nU7Q6aSR
NqYxu8VqtZvBTv88nslhs8soY/PQZLLZaJbRp6baTTTLuNE1SmaIG/zDcCpUqDgDcLlcVLsjbUxj
dpvNFmfBvTEG5fg4hxkNlqHJcFVGMVss9OPgJPqRsd4kWSAezKfmqEKFitMCj8cDkmQwjRAds8fF
xSXYICEegxZnfIIVDbahyaw2s82KgqYfKbltVnSWzQYbJOKOV4UKFWcGXq+X/tbUj2jX4XAk2CEx
AYOWpIREGxqGaddmN6NDbbdT7XrsNjvVrh2cYDs1RxUqVJwWpKamgsFgGsm5jdkTEhKTHOBKwqDd
neSKQxk7hiaLc1gdcSho+lra74hzgGw1OSAZ4s5o2VWo+CkjKysLTCbzSM5tzI67Yo8TvB4MOnxu
bwIaEocmS0iMw0U50UlfbWU6ExLBEmd2QgoknMGSq1Dx00Zubi7IssU+QnTM7vZ4fC7w+zCYmJ7i
TwKPO2losiRXvMuJgqavtnJcSS6wxVtckIZeswoVKs4MCgoKwGKxOUaIjtlTUnxpHkhPw2BSVmp6
MvhS3EOTJbsT3cmocPp5br4n2Q32RJsHMtFrVqFCxZlBSUkJWK32kZzbmD01NS0zBbIyMZicmxHw
Qlqqd2gyT0pSigcVTl9tFad4U8CRZE+BbPCcyaKrUPGTRkVFBdhsjpGc29iuNiMjMzsVcug33njy
A7k+NPiHJvP5k9Gh9qfKGC5L9fkhIdmRCkH1229UqDhjqKmpgfj4RPcI0TGnNzc3WJgFRQUYTC0r
KM6AYG7m0GQZWb6sDMjKor+wMTYrMwtcvsQsKIWMM1p2FSp+ymhoaIDExOSRFsiYvbCwqDwIFWUY
zKoqG5UDRYW5Q5PlBNODORAM0ldb44O5QfCkJwdhNGSfmqMKFSpOC6ZMmQIulzdthOiYvby8IlQE
oTEYzK0fM7YAKsqHfUtyQVGgKB+KiumrrUnFBUXgC3iLoRbO6NdUq1Dxk8bMmTPB4/FnjRAds1dV
heorYFwdBgvPrTurFEJV5UOTlZbnlZdCeQV9tTWjoqwc0vP8FdAAJWe07CpU/JTR3t4OPl967gjR
OYOn2rr6c6rg3AYMljU1TKyE+toxQ5NVjikaUwljqugrr9lVo8dAoCi9CibDqDNadhUqfuJgYt+l
bgOWhkgiHsKJL1gHwjA0zXBgJDvilwe6Bk/+1LT0DMgKYDCYl19QCMUlpUOT4YQw7iw4u2EChhsn
TZ4CU6dNb4YZMPN0Vew42P/bbRx0IyeBjBnocedfAXVwFjRCE8yDBdABy+FSWAnbo1FM5cHYsTAO
JuCENRsuhEVwyfHY6Dsj/MyFkb7bPoZQZVNFeVlpSXFRYUF+XjA3JzuQlZmRnpbq96V4Pe5kV5Iz
MSHeEWe3WS1m2WQ06CWdViMKPMcyBLJJOL6meVeCGHB6vd6WnNh14vDrMJsqf+ENg2VYIudJNyWd
dO066Tr5xPW5YbCF6301tTTjXVB/NAzWMLGFgT6FWM/BJ8Vuqmtf6KtbEE6oaW9rwztqfbInXP9Z
MFYUJe9dkq7GVzNPl5MNu3QSBiUMYdqOXaR+DFECTH1dxS4GNIac7LAlEGZS6+ixMBza1IYBXy3m
hDHWH2L2RPdtHhoFeNvxkHUwRMJCTVhUnutZEA7NDsMmz67sfb2b98gwpy2gb/e1z56JLTcby7gL
2NS6+U20Hevo0TbfE+Ywc4WcaPHUzff0+mhz1M1vQ/bV4l3/rR3N2prmDd59zrAFz3VhcyA8DlOM
u+xdJ9tbF7/AQy97ezd4wtsnNQ+N9VJuaWmJxwL31vkwQ8ysbmE1ViU+mJM9WKdYA7S3LaTPXDib
lrNuoad30zylrJuVMihJ6+Zjx8z+sVS9vXXtvrr22e3Vg7nXhENNygmaZjQrFcSmq22JmWIJMIZT
YtpqW7yDjd0wubmGFsw3u9Y52O0nLG0xCxrqjkd6aAnGYwZhz1xPGCY3+zBpGaV5ZdA7t0wZPN4W
gnc1/nBXmE+VfZ7eryBM2nz9nwy3zI5ZhFT5K6DBel99W29vvc9T39vWO3tPtHuOzyP7enc1NPR2
1LXhUxub8a490Yc3OcP1m1vCctt8UoFtT0dA/eTmKqfX3HL8svH4JeCQwoElKdXBVsB/42MnbGVo
avZ6sKGmNrc4sZ2aabgJw4NnOpBw4JZhH8eajbbRvLITzVMTC3q9dHRu2hOCOXgR7p7UPHjtgTnO
+yAUDGB/tNGYfcdj7FNpTPfxmBO3t/nwKfcrU5Q9rEk78c8kx1nr5leESdz/ED1vMD5srWlmnUzL
YIhxsjSkC6DSK8OOAIYzAr3YCQd8YTkQ5pv3OStbPLIZZwDae1N8DZNmNHvqek+MgkFLrKZ0HOBQ
982e3xuTEh30ODwIdlCo5ixfECoxGw811IdDvuqgEtN+BMLsEYzASaN6l49snLQrRDZOmdH8kIyz
+Mam5vsYwtS0Vbfs8mNc80MenIYVK3PCSq889Aoa6FC9j9EoUc6HQgDdSiynGJTruXsIKDbNcRuB
uXuYQZus2BA5ENI2ffB+gvvo+4lu7OjQ2r86Ekre/jjN/cnH2W7Pa6HXmIn7Z+1nnn3G4l78DLn9
mXufYZ7u07j/dL/ffevNpe5bbi5w/xyPm7cWuG/alue+cdtZ7hvw2NaX474ebddtzXVv7at3u/uC
fUzfVo974tZZW5nbt5LQkSNHGPmw5zADh+XDeYdDhxsPdxwWQnu1UgktR+MjerlEfpiE9mjlEtgt
7/bsZtse6HiAeec9n/vd9zxu6M/rb+tnG18hoZcbX+54mf2ix+7+7P4C96d43H4/eeP1bPfrb3jd
bx7KdR96zEIr94eXjLKSefQlnVzy4mMa90GMMB1wHwgeYF94LMG9D48/rmpwP/qY2/1YV7n76s0N
7i2bGtybN2W4ezfVuK/CY1PXOPcv1iW6N67LdW9Yl+Vev67dfeW6RvdaPELrKkeXrMMbt6+xuNd0
N7h7uhrcoe6xtSXdXRnuVXjRtbrO3bGahFaPrSnJbB/V3tDe0t7WvqxdkE1ed5w9yy0KXndCfJab
Y71uqyXLnZ1jygoYMzJNaelGf6opxWf0eE3JbqMzyWWIT0g02OMcBovVZjDJZvo3tfVanaQXRI0e
nSQ9elB62dRtYkJCt8CE2G6WMUEVTIRQWhdwJgjixWLogj/CCxAFjXOUxm2q0LjZco0byjTuxkIS
tjRAQ1N12ErwPKU6XBho2KOByeGCQENY23he8y5Crm5Ba5jZiMOtKcxtxBHWhKvIjPOa95AEGr1O
WVQwtId0r9uyxXki1NIScIXbG6Y0hztcLeECGrjW1QIBxNJlS5cuDYyAXVr69PbJ1bs+5OiSMzv8
oa9210cfKstP+CNfLQm3ozBrl4ZX180Pr/bVBkbMKvBDFA0oD8VjmVICWLossHx44mWB48UCEGz0
70PxB+k30g/yMBeuddASfWs4R9qjX/3fnMJToQH4j7//ixxkMk+yXPgfP/ggPAl/gvuV48+wF3bj
z+/hNrT/FR5FGz064Cn4LexA61a4B34Jv4Bt8Bvl6krC4F0A98K1w3K9Cp39t2AphqahF7sMemAz
XAe3413j0LYe8qEM/doW/LkL9uCzvobtcCtshBU4hrthA1wNP0fLA/ASfEisMEAspJBUMklMLXM7
cTFB5hp2KZbnPizJvcwsxkt+SQbwruuxbPdDJ+awmQ1DOpbpFibMRLGct6BPfT0+maFLjUi/qI3F
k223wHBAj+Bzh55TKD/Pa/aaU5EIpvqum4fv6Rm66TaFwdoD8zqOEHr36FAGw/4RSICMIueQWWQx
6SIC5i++ENR28V3aa3iOZ1mGEffzEBwoCFblkWArngtbNwzsy9cSn5X1lRYyr0f67zq0Zn/+fv7g
909zpd8FX8JS5rMH2X7BpjwnGHKyHoNcKlISRMwRtyIvMgz3okcgQrC1vzDYD1WFQUt5eX4eCQQI
67P68GD7H7yy7bd4CLaBR5kaemANXsUaPIsjmubsD9nI3xhe+BvPHuwgCPHgLJ7wSpat/RDsr+rH
HH3WQnowV31e/XkkgsSGiOv7HcQFTPRuVEc/toeI+lkXatVqNTo2nZvGXcCxXDcv8FoNQ1aLwApW
wScUC3XCSugURTGkNZSKoowbng66r9KH9IT3auVS4GXew7N8Fl/Bn42N19ehIzqtDlheYLERqyyO
cixYK23IQKsZC1kYDOTT5ty3T94w0Lpvn2af18d6WR/xsizh+p8uGFj95UG2kwgNrZFGsiPSyh88
toz5x4AXH1uPWh+FZbeDHwrhxlA2o2XMVm2qtlBbp12Zvjx/WYE2O9mV48rJ6eF4G8fxqas6rMQa
t8pq0tOVpwRLrNcXh4pJUTlfncaVcPXcdK6T47mi4qIK7oEi2ZR93YHkI8lMWzJJTuZcfTyb08cp
7WrBiizpLy/PI/LRgCi3vqvUJ1Be3o8V3JAbWCU/IVZW5kNrqpH4vMRbEOdIJnabINqVE1uUlp6L
I4/1FpSUjiGDlz5v7JIrn/3yLQOHyHRyz47bq0tL+3pWdHVVJiVmrW5/+wLCTevOG1Mdl5afsWpx
5KW1xLzuztETJ68YW8ofjMtIWRDqebJE47x+Wdc77EtZpZYkU6Q+welfN7CvrC45QR7Y70oN7kD3
Y130Pf59/hNU2ZJQAS/ZpACTKkxgGswzzbPiZ6VeZL44tcvc5ViVagTGYLD1aTm/39UHVr+frdIT
pf0kHW2/zMRV7O4M+ct+Wv9WbBeowuFHj5qm5pAxE9K0FVCs5UKGRgPT2tqSn9fKe8BcZCkt8Rdi
s4i+XEIrnyKIAmO3xRUqTVBaKAoc83bkvchjVyxbShpf6Dm6MsfkrakpvWnm5o+mNbX97ZlZd9eP
nZ9qDC6IfOokqcTwPGlff+XPq2qPeMtTXOnLF1wQefPXz78X8LprXUeLp1L149zFf4ojxgguWBSa
6DRnM9nmPBy9LZaLLfOSOpjLJayzZZlzSVKHyxTncPSIGpsoakyrYI875CbJ5ZrqNLFErBeni50i
Lya7kyvEB5Lj+jSso09UxsWQ8YBNMjgQcBQQG4P1UQYChwNBjHU/oZUtsfCffvP3KyOf3Bu5mDST
Gb8k0uKFHQcnTZ60Z8uvI1+8cM1b7Xf8lt32ZWTCpePy+IM5Z497b+clvy4tSf1+ebB8JjmPvoeh
NVuKNZNgNc42goizltijk2w6nQQaWcNoOjjCcRqg3VYooVDBoC+XqtN0Jbp63XRdp47X6Q36Ct0D
emHrAfYI+xnLtrGEZXXMVokVt+qGjPkfajg44IOtwdYfBjwRcRAPHoRfmn7s8zbWhLyGcoBM5w/u
jMz87cBzO7GsdAy+I1QqY/Cu0ApesktBxidUMUVCA1MrnG0637TIdJnYZeqyLY03Bbwk2eXqSfHa
UlzOFG9GeUp1lvds7wp8VEZmRoU7hGJ20/+WL+s9ehaHZSizLZNx0LGZvBW8sjfPG/JyXq8WlIFo
MJhxSCfigMbhSgdrq5lWj9buy/7Y1PRcYLCeGzS5AZ72Yx5phaGDl8PBm+YfNnKt3lIvaySikbDW
yP7Ib7pWriCtr68l/MYcy+LI99t+/c3UKVM/Pjpv17lNkaVpTNP11Qsb665zkTwS/zw5f01PX9W4
t+e3rrloYeToNX//KNVFVt050OMMOGyJg70smJVe3haaq2MZIKSHkWwMI2k5XqPh+R5BtAmCKAli
GlPC1DPTmU6GZwCX2MVMF25IDCED0ZeL1WlCiVAvTBc6BV6g/S48oOe2HtAe0X6mZdu0RKsVQGSJ
AMHCqsKTex0bh/b4vhN9viE3noZk7H26KNLZu5D1WgVzZOeTOwcSdj5Jpj+5gXl/A3/wuyDz5oCf
PzjwB+YcOmpxBueSsD48NITyWI7rIYyNoEcSW0V4UShnqtNICanHqbCT8AQbuoI8IDAst5XQITls
LMZGYX4mygrXj6+OTSLNT0VeYN7HB786+DTheXyaHu4NXallgOW0RimRkVmb1i15WB+XKeVry6Va
NqQdpztbmsXNki7iFugWS5dCF3epsFLXJTnn6FYyqzhWDz0SI2pAKdr56DmsQs+BGLW80C1qRMNJ
04TBaMBpwsAzOlbbhTqUgGNFLSseXxCRfqiITFdDolRn3z70M3DuaPX6sGFZgquilXj5zqdI2sCO
zhcjLz6C04X8NFNLrNznx3ayq7/7AJfHP7OjY20ryFhbLWwPdXIC4QSbkEtShFKoInlChTgOJpKQ
0CDOJE3ChfAzskQw5wkhgdHCGqJBx0e0iiliuThebBEX4IovSiGJYMOvwdVRd9JqqZN0uFrqQCRt
YoeI7UIYjhVYdrB+rUtOrlzr8NotUapHvFpSyO35JLIgsp/WK4ssIwmP8EXfUb8qxO2j8/f66FuC
k/8MzOCDuaGqTDZLk6ZPMZdriswTNbXmJqbJ3GhtTWq3LHB2MB1sl77DssTa5exKsgMT32fivH2C
1Y5zeWryKu1uv/x1P2pdkT9dqQyZQpqpQig2jRfqTYKyTsVm7ROC92CHW4qL0oYqXnAuX3xJZN/T
ka8jL69YcjGpe5xoSW5kXdO05/Zcc3RK47TnHtryPvv445GbrtpyB1ZTv5/M2bT+jsg/ju24hCTs
3P/G2o6LI4dufv7QGlpD6tNYsNdk3LEsCZ3N4bq80Nbmuhy6bAKXEM/Hn9C4eVWHkRiNOKkRz0mK
9ng9qGhPQp8y6QvxfSKLUh6cv4cL+SRfhRipS+L7wVs54aYMLsrcuJnvbH+t5ynsno0b7ysfNWbh
whR/YPn5D225b8XtFbU1zF8mNAy8yB/MQ4/rvMveIIWFzUle18Ad2XnlVx+vnU9Zf91wW+giLoFz
WxPi3Jlymdwgz5AXsIv1C+RFyV3Yc5fJS9yyxmIVRau1x2a32Wx2s9xjcptgVUcSSXInmUyDVbdX
p9lKbPW26bZOG2+jVbc94HHbNdflmUNmxmy2iX121mSjU9lgA1hO8tnoCta/QR7YR4asYq1keM2t
1CP9oWEYkavzeNMubjyy7sU5146qHn/4w8iKyHtXPYXz1LaNd1WVhT58lJtVPD7RHT/wuD+n4Mbv
v2amDPyOP+jLzVw2/eHI+6Wo0CL0wJbh6pcHD4aScyyezGJ7sb/eXu9vMU3JWmydm9mWtVLu9C1P
Nwp02dbi7sEVQkrYEz0SOkurL2U8SAIjBWwpnAPAGXI2OtucnNPp7nNwE7lZHINLPq5w0qpAyipb
wMZCopzoSWQTEws8BaGCxoKOAo4NKsMA9x7BfroNoSthbDl0lFNZmJul6Skrpc6Uq6T1KTdKN6Vo
qDTotruVT/GnlxbGcdhExUpz4b/iIvAqTp2yLqJEsL1inq+RMOO3Rr5bnWdsI441r7wz6dyxf5j0
i3vIApJ8a3RmjnFc5NutD752bnvo5bOuvq5t2sx/O0dXvXPe7J1r62bGWbxW312rXyHOsdmvjD1/
++XV7QmmgDX95uVzHq87u4nOd2EcW08oO5kFoXrCMD0sZ2NZThbzxIl8m8jhPMxryrWoiOprWAKs
zKaxJWw9O53tZEVWo9VUsKxWM1G7WNulxa3H1sH5a6AA13xCXQM6YJa82xooLAyeWGmIl85bpV7+
toH+yAtPkfyB/jTun3zGd6/yGTtxvKdH3+JmcCtwxSmGzaEWCFqD2fbUYIWtKDjeXhtsyrogqzNL
SgK9oTi5ODl5fX6RLT+/qKS8qDof3cKKzMy4/IdLhbVxIUtCaRzclJVUmFSTxCYl5VgnZpLMzNQb
c+Qi7Q3WOOy24DAfJhjol4+alUKj+2IcdF82GCsr+SfQi1GEjt0Rc1lE5cKXklZchE/142gf7E06
y/nwCp102n2sj11486fnTmqac+F5j072O1vzCldPXveb5UuXkKr9gibN52stm/p6rS61/M15Bw5o
hXsfYc4RfF7vkqazJkwqv1UeZXe4b1m1bndFeaGQlBmXV2mxGEqde01pa7Y4RzsHdNheZdhed+Ku
2Yrz+4rQVHT6TGnW0caKpDqm3t7MLmSXkis0K00d1k77FW4Tjzs/xrEW9qbqtMkuo2G9XtL7y/XV
aVKxVCdNk5ZLvORP9VdID/n1kHiDWZa824RYWw3xHKj0KRTHL+aqK82RLlJHRqk/UdqENgibTH12
7s4Lpra8ua7lltEJYXLh3u7W+xbt+F3k2bKy+ZdMue+c60Irm+b/ijm2I/LqgotXBtNLcQP/8tgp
zwxcNf1A56U9k4sGelLSLsAxOz36Pur0UvR/W0IWLctoE9AXqXZOcs5xdrEaI9W5BZ11WXbcqJdx
+3UjxPn9JjoZWHAeMJkyJ2bOyuzKZBPXCo9kxPzWQOEPGzDUKYo0TZHlKdutYXst1GbSwh2jR4Xm
zJhO4Po5v6vOlGyVmZntoce/2rq+anV2fpNVypj+eEJBSdFtC35B5Avbl5ekPmvJs8e5Ins+3nKT
3+4oMjyXXo69ODX6Fp8V68V1oRnjE8enLOS6NB3mK5yCxebDXS51XNczVnRcrf5ya3UaU8zUMdOY
5eir0g6TGQKMrLis3cy1jMAw2MOJWsa1VvuI3wqObSaZ8dwwtCu/HnTZl8R6VFGnUa7UVBqVdQ3d
i9LYCLcMDmiHlR0c4CdUwGdFbtrr7LrlvNseap/2X+09B1hUR7e3bWUbuwtL51Kkl0tnQaWJEURA
mhUV2AVWyq7LAlKkqWBDY4UYNahRo2I0sYsFY+wtGnus0SR2YxcVeHPvLrgqvpf3/f/7873viyN3
z5yZOTOnzJlzZtkl+XbNsAVhqnkR1VHZy4P8pIqipPXRdHHb/cIhfQ7tWQpb5+ZMcHCAb7VX2dnI
hsRdzS6tTvImT7ihnb9jNVg5iLocQYTijQkFPLEwEXhlMhZhsBpDJbBEwqY3CgQ2NpYNbOP+rCSW
hoXa2Ii4LIkZOllE5dUsfoBI5Gw2kdvSlVc/MJRKqc2t0y0Axz0gI5Ruw4Rt7f0EpO8l96pNN1s+
2t2NttKwwuqZlx1h+u2OV/Ak2Gr3EUPR28N0WvOS/DtxBs7e8X37jkG+sXQyyRm/4fP2vpdOgyB6
6661VjUploEm9UtT/I8Krfh8AeDRqGMYthfwaEfduuQ6Iz6Ij2G0a7T3EJ9cutxDhVQyCg0rTVQ2
5a48CK61s/cRCW2FviBhcxD6CSOFKcIiIU1IXrEIhDAkFAiVwkphlfBzIV0o9KtkwAyG+0S2qZkp
Ytri67jAWgDxifnGTCZnAWYBAYfsCeJ+Ks9+QV1z6eldUEfuY21UCWzMBlh+gA+1X4HSQ+APLCCA
8YEFYHtvhnf83PEsZX2UKztwd9Loya4ufnyJfOH45dtGJyfemTymIVASFFoXmb40KKBPbnHimgQs
9a11x62ONjPjFlMPLxcXZWR6v4iDm2fDhmOzyt3siMM2vYbFRZ/KLqru7wf2eyDIdxrAzjCFGrYG
iPqLUkSoybbOS6HDWdwAUyNnsbORgpdtVMobb6QyUZmyQEpXC2MgI8L4fK5YbCwSiASCWkOh2NBQ
iBkK4R3ArmAzqTDcwdDPMNIwxbDQkGZoZm4WZLjdjDNfIhBCNEMy7nn/VuJFd+rGBBsEHA4m2uQW
SnUFRx3l6EXv3F23C8QaWMxvds7lcBNzY7YO2bsTuL2anJaMOcvRUSYJ1u2uSLlfnGNSclLQ293A
3R0fGD+X3A9B4DGS9gt1Wxkf6gstRjBaLQKiZyYVs5I3iin0QhCzkgcwnxXKqqRXsjA6ugQhIx0E
YfDJyJXcANSdYZeaQbDm+cALBseTCJzAyEj3M+6qjo6dMEL7Zd++jpo3y7FUSCtvRjywVA/oVOgc
yAnxEHo42OPuAbYBTn4ufu6RtpFOke5D6UNseQJne2fEWSCqBRGkscRfMkPSLLkvodElvSW1kgWS
lZJLkjYJQyKB8XdKsbKysLPrZWtta21di9uIcdwGw23gHcRoQkUgnlKbcAfcD4/EU/BCnIZ7Ep5B
+HZPznw3gfl8B4ENH8SqQDekcv6SemATavuPI3lvTfX6WFNgm3+oOIbW0KknI57FItXHj8mJ2zAE
YdFX7JzLFciSe88rA7pEdloqNmaMq5dMOp05dx6aaRPtQGl0uGNMwtBg01DTdj+kvG+c84iIPoPf
7sZSy6MSxiSPSZ7TZdNAxqbQrPdsOgHYtLNYwSvlkbZM+5dtmf9vsWVGz7YM+P+ELQNeSVNGoGEg
NiE9O5l7SkOdWAxUMNw4yXqsscyaPNuYZnQjPmLSwBfYNNCNjcioxIo8rvSSzFRdRvm+H4L1NKh1
RFjNyKQhtxoPXhuRkvh41t5bHSf8pbWlaQsD/YNqy8YsQk4v6LifObb45qEFsGBsZunl9hnxpwtn
fJ46OO6Metq8kRDSebFDhq0CayVP4LrQaD4KiaxRgchOFMyPRPrZquEypoqrEpVZaGx5PJ7AzMzE
nMXmctnsWgOO2AD8kMu3l47nwJzw/gZDDIoNUG0kRZ5OApYgwEACwikO3wrEUwbmEGnDIVTUSekl
1bX75pMBzl9SM++FVe/0wNCPqcj8clVWcsqt6uENfXN3wmk7zVM35S1fu5+KqeaEFSVlrfCXBiJv
V3ZczlSUODt2uNDaCkFYdYkKqersbGXxSSe0FoneAQ5ACOWHmply/Q36GyQbYBwGiP8NDIAZsthi
FostJHlxBrwIhWKVGBZJ2eEOLD9WJCuFVciisURiURBruwgY93w+34DPAl6IPHs+uO7vNj4elTPa
aU8UYHRdew/dzXaK9Bq1PXnT7s7dDpO3J3u5uaANbFZy77d/YKkrUgfQGGDFhp2/YQYgT5BCU0It
WUY0bzMjI28/nwif0Ubx3mN8ygSF7gYIzhEEWJMhoTsAlBKY5ytxxSwhGxunRksBTmb6Bo2QMW8i
5CvwxX1RX9eJEl8JinepDMeD+cHWwSHBlcG6pM9Vm/Sl6mV9ZNKXSmZ3VNhIHp4SSjd66Z2/7vh8
d23/QZIHz5+wP9yFbRTh61kSWd+UMMgxL7BQ1S8i9ECJ7GCIE1sQ5u1a0HfCophYrxxvTWFU5GdH
zPvaHxZ6mUhssuV+UiHLmG8zYXjsFKl/hHevVq6bRGShGOEdIeIYcSxLRw6a6y8lf32iqvMuWkFb
AllBM0NHcoQWQjdhb1GsaJgoV8SwAomvpbmJxBLDaiUWYonEwlrqajHCogwkT+ESa9w6KA6Kw8dA
KqgSp5F/qw83lUBigRgXo2LydgGxMmm0MOdzuawGQ2Mq5gjxeUDeE5CHkI8PkJ0PdRgBU+9KrgS9
ezME2ksUBnkBrBd+6TIrkV2Aj8gHRStsO8rHswXRMudxYrZdYKXXNOCNplfaVg7cORBLbWxvd5Rb
RX1mwVzGE5ZMxEOckKGNcFjHHvI8KwU+6AKwbFNoVWgGn2nNdGFGoVHMCkYls1JUJGH5Q1FICYKa
mBijCEqjgmxTEGSb8nm8Wi5HzOVyhnFzuIgph0vG12TY3Q9JRvKRMirOZiOI1glzwzmk5+WwSNvh
ANthQVw+YtQVcfuQO92HSi11N3lkPswjM0ya9iqYSYbeXuRluV7kDSTg804wIuwCOLAtc7Znfb6M
xVy1cy5LMEQRvWdwK5b6Zjk4XmZPtw11Rs62T3KUWaakpASi4YD/vRBEXw3450AHQsc6wm5MB3YQ
Eoz6YQHMPqwIdgo2hJXEzoLHIjI0C0tnlyKlTBW7yMCIBlIrI1TIwpmOLBVTxWIasA04tYAgxmRM
AsFHLwACgTFZBhw60osO0/kuIBlBECbKYqN0aFvntVAL6k0THp9XyUNCaHG00bQKWgGdRqOpqPdw
gRi0W0oihUJSQ1J1lydsFQrjqApVMVHtO18wlW2CB7OVvPrUXuuiPiIY/Kevbm/boOrw+bZ/qyV8
aHEerCFlgY5+uxSEmU3oGPKHtAIf4N3/BFJgQBNDfcHSERShYTR4AH0ofTwdpddBwNNhk1AUYUAS
CGRKSAgkRaKQ4dAIpBJiQyiD5McQqJXBYPFZcA5SDlhF0G2dN0K5AIvSGAjKRPkw6dgBH6Syu7iT
AhZIDqg3a5mgkE4PptYPIyfhyCN7lyDGxztk8BXM4u1eNASCIGtdSYSq/pdllX6BafDXiBUyHfkd
+R2tQH/XFswSm4d10JS0q7SrdDmDw0j5ZHnIzGSeYsWx9rL2skexzxsY68ohTm/OHK4hKGN5GK+C
18Hr4FeDcuGf8k/5p/xT/in/lP8vBZy3/dHY7k+UkN8qo4VhEC1462AEokOVOhiFvKA8HYxBPKhY
B9NAjFWrg+kAv0QHM6DgbjosgG/WwVw4Btqhg3mQC0InP0WEoWAuHhKqgzHICiEomEbhR+lgEh9L
wXSA5yDlOhiDLJBcCmZQ+EYdTOKnUDCTwv+ggzHIFmmmYPIPKsiQEzoYhniotw4G/dFjOhiF0tFv
dDCgie7UwTTIBL2kg+mQBcbWwQyoqJsOC+AddDAXacTCdTAPSqJrx7L1eGfr8W4A8GIdLwYAb6/j
hQPwAkZfHYxBOMODgnkAz2SM0sEYZMLQyoq8ieUxinQwoM/IpGARhZ+ng0n8JAoW68lQrCdDI6r/
9zqY7L+Mgo0p/E86mMS3UrApSYfxUAcDOoyrFGxO9meydTDZ/zUFW+rNa6k3rzWJZzrpYIBnmlCw
PUWnnw4GdJi+FOxO9U/XwWT/BBJm6smZqSdnpt76mXrr5+j15+j15+jJn6OT/2rcm/Ai8EGKDLWy
QJmpwSOUapVSnaZRKPM98LDcXDxBkZWtKcAT5AVydZFc5pEiV8vS8tNwRQGehmvUaTJ5Xpo6B1dm
4ppsuR6hLLWyUEWiM5R5qrR8hbzAo7sxqItIlCYtV5FBVgvAhLifB+GDO3V3c9Z1c9d2G5SmAVMU
4xFpao1cPUxZiOelleCFBXIwM1hNpjJfg6cV4Cq5Ok+h0chleHoJtabI5Jgw0KqmKiq1UlaYocEV
+XhxtiIjW28seFXkZ+QWysBQjRKXKQpUuWCCtHwZGKUAHTJAL3m+xgPvmluZn1uCOymccXleOjno
Han8rs49rojqLlPkZ+FqeYFGrcggxa03OxjeTSuYWoCTAsyikeeRulErwKwyZXF+rjJNf1Kw5jTt
SuVqHLCrBFOBZ6FGVajBZfIiRYac7JMtz1V9wFC2RqMK8vQsLi72yOsSvgfQm6emRKXMUqepsks8
ySkKPKEUSA6pIRmUBuWDHxyKgApBvQBSQEWg/mFrDtVaCj34b1q1Yz9sG6jXpgRPDai/38cLIiB/
CEeb0Ba0Gd2Ibke/g1aDkd4AT7bh0CAwLgOMUAI6SigT0CDXqwQYFfVMAxgFgPIhD9ASBuWCgkMJ
AJcFZYO2AqomB6/kvEXgKQM9P1ypgupHQhqKpgy054FXNeAPp+YlW7IBtucVZVH1QrCmrt4Z4DUP
1MkZFNT8Hj2MDPpoJVEAmwZ4IHt2tRboOMQhP0CFgHwA5NQDNecPqLm/R20QJSstF8WUFEn+NNSI
YdTqcYrnEvBaSMlLy7NWNpnUCjSUlAqoX6gmx+VRWtVQUsWhdGpsl5wioWQoBmhEO1at16KiVi0D
s2RQFBUUb8XUXBng2fO82jrZNwNwVEjpSEb1VYKnjGpXgRYtB6QEZLq5FDoKGTpacupJ2suHfJPt
uRTkBEY5g1fSDtK7Z+ppVfkfUf7rMnpHXUZRygI4NWUtGmrdGd3W3TPv2tk/XlewngRITrS8aKj5
uvYNSV/LqwxgiinOlZTt98ypVs5p78lUTulVqXtqudLChaCmop44tdoiiht5Nx2yZy61X/47DWVT
klOBneAJSjFVPCiJvm/5Hrr95gngEorDLIpHFaBQArBdXBRAH3u/d3tkHFiv/KP2fvBg0KrpwWsq
9bzbp32qHMz+Kc9YAvj52KeSK7qh27UfUcbMsAgsFAvDAjHvT9D9hK+GiW5Ocz4aGQ8p4TRKT/k9
cBMJRpbqaigEdT4FPzHQ+E981geFyIhXAMGdndpP6VN/ndcY0n16H91CXmnqxfwQxIZ8wTkA56Zp
8sFYEDPGJA3AIeOEuEE4ZAHmIj+1/t6ze1wg8O49j7PSGwF3v8IQkqvMyIV41FNM0YF11BAqh9DW
BLpXBzIOgzB0KjoNnY7OADUEaoNegyZrGKdqTAhG6ykqGh01HT1JJgR1/ZE0ySiiRjKcznKpHVD7
kgszkKYayUCA+gyBYS8DgkWnufJQxIwGEWl0tisdxuCaAATGmhKJwYSbHsZimVWVBdSbKnHAdZAb
IBcoi9wyfclC2OgRw8T5GSz3ISOcep80GdkQu3fdr6vFC/OaaoReRA02hqhBY5pQBEYQtsdaw8vx
nSMXH23tGm0JlqLyciWc6WgyZiCyjVCqStRkGIk7ZTjjXlJpwAcBp4eXFWGh7WzUYyjqZUNYk+2o
yORde4JSqcHDCjXZSrVCU0JYSbhEABHoDf75eBHewyVcL29Q9QNI8G84UULJChChi5DkRC8RYUhW
mCL2kLSCbBCLacA0AoJHIhkiRoJclqfMl3UtjP2phdkRNtqFmem3y+R4oiIrn4zw4iPCiBrYluB2
KxCGaRBaA/MhgGcjNTAMbS2ZcC51Y6T0G99mr0ttvfyiilvfWC85GDnu0an+t8/M2JcTk5D+7Atk
36ALUbme9n3le07YbTUYsLWy8ErkrjWzePH7e7k+afqDa2d9Ksz+dfoXJ00jV8yNtv7i+EZP233R
7uXKi0ZWwTOkAumVXc7PMoPdYe/ODscBKzfnwnWL3uz4PqOypm1kU/WkyTM3PNk2b/nJwJXxkyWO
dbFXiBdQn2cH2vpU7659kCtd5eH7YpPHevaE9NnjMxc1FnBr1z/58Sm+PU5Yn3HU7aJ3pOnDlugF
wfGJJicyB5esWVd3KKXvVzXxU/Jp3/ntLbPflZDZ54vYY64VPvmTPqOfWvJTdC2SXwt93Vp3LRFB
geEvr35NVL8kRECclr0wDsGmM4Hp0mgMFCWql5FYGKteSFQ3VAlG/KR6pFAvsRtcIf5+0MzOo0vV
/3l7q+FDe6HpvXtPMTzV90XG/WuhBJ9cowiGOzEagYIXwpJE8DBjTHzM8kQRpBqx/vGlH2MXDu7n
sbxfxp+EAdnMx8jvsKjV2zooaRFla7+tiHZ4cmJnrGbZUEeNS+HG2va1MfPGQ4PuHLlnclmxn7es
/CkSceBI3bFXicd++GpXivLPjH6r+0EPFxxaeNZim8FXptx55y9ZrXOe8OjByoLmWVelM/s0jt0Z
mHd6ynq79mt3zilYs6fs6rgBtfg+fVneJhB60O45L5gbnuM0bmvgrOsM7uHU7OO7qsJyMr9p2doy
0/fIE1RQXvr89PXwa2UdN240d7y4dpa7UXVuzs24LYHLyt3P9PnF1yA9APmqeqzd1BcjM2ZtGN4i
PT9mRvIkM5/nwY1NNZxlo6dvdNu6dMXRtZfwLXsI08m4mOuyM+FZ2PVRxM05Toq6vapfn65ae6Iq
XF3EAz6mFPiYdJ2PSYNPar9Cia+/j2jAz/yNu5p0OFLgYwK8vX0JbynpcLwIn+4qUT3x/2RtXMpw
gOlig+LiE7q6o5/o/j/6nl3E1DeR6m8Sc5ZMjYPsWnefsezz3bDQwKcFs2scfl8ghBIvWtTwep+w
bNn1Mry+4czbQLNb29tu3v85Dd3T9PO5wkEj+69+MOrP078qRpgV3N1oUY8dd+7XJBvmadWYmn9w
rYm0Rv7jqp1rC6eY3q1rEDtsrHQo+vpMoHTSzY0OZ03aXO+cPmw8PMnmSUN9Xa1zx7Mot9+nv8JC
Jhw/vmBOLXcc+utPHZxwv87z20KuzIxkT3hxfuC6EX8WqS2L7SZM9fvRIvX7eHTgZ3mMVclTGulV
K6vXJcVeqD73ek94q9fuZO4XZxOjhMS931ZMKR/1Y+lwcR1zU4Ci6Z63/QzmvbYz4h3X3x6/+7WR
zve8Iqqf9+x73u3iwPG0gkPm3l+OnlObvH7qjgNffKeZSanPkk/uerCRGVWU37C0w0wI46qet30/
soM11ocIJqRNAU1+tT669DtDnftB+q3KUZBYT92lRYFnRCIwPA+AIgZ0rRCGsd5EEBHYVSeQWrdP
5vMUQblaj5Lmgw1FeR8ndOJaEfdxh6EyvOhCxNptB8Jf28t9vy3cMI6YuWDLxNfqWx3HA/4IUjUO
xnk7xm06/OzsrWm3nVQFZx/c+KHs4eMU3+FVNfcE59XoXWHs/SvcGWX94jhphe35ixhXTrgON+FK
N4xpv9SJrUGWX3g9c3nLrr1jk4K9Rt9yyz/6eJCLxROrorLa9Qfqzn3n8qD5GK/11leVt0/enqRO
qjHJdzm0ZP4mM6u9yrm/pK/cOzBn3eEHfebc/N5zbWmxNGssVFazGBVczZgf5RB+db7t3jqDn8TL
R18u8Fb7W3Uect5vnxCXOeCwpeXq/Q5SRXzsqvs/0HM91OaPbS7l2Q+oqjYKLf/qmCYwOg54n8XA
+0zWeh/BWIMv4lqhXmsNf4m0HlqatexDH/T3xDr+wPn4E16Er28A6XqkoPo3xDpJijx5gSYtT/VX
Y53LAflv1h8Kjx5ncujEgL6Jra/Xine4ebcI4xIOTXzQ1+dilNccpy2zZdet4yft+GHgqUraq0eF
u6cf/ObstwpV5njHzNtbtj6avP34wzXtwq8Nhtk6e54MvZiCmRdtzpPlRSf9cuXx1T1fTTxYda0y
BgmY97x1CTPFKvuz4xdbi0Z6TtjSC9uUMmKsRUZnVXnvh2exXoOkxRpG6g8jL9QGuBUe5t21krLK
izoW5+aXXr/fd1bDknG80S5xJuljvJecnhjrajsyO3L6Vc9Jgvjv2zab1ec+7PWl6NVRwfnJvGc1
RQX+B+aXLjs2hn6ftqHWZ+ureSMmhU0aOnle/gZrtwHHlIsiro+9XekwM0frb2pgJyAR+548DvP/
R7QjoLN0mYURTH0Nl56jVN6ODWnY7rt2YO2snYvuNgeHRRz4iTDtHiBGMI4VG0oECWc6SHbD3o+E
PgqjenBQ8wYZev1QHt9iOHNpGgPmzVBF1j8qSNoVwqK5d24bnDjZ4oF09tblKQZXZ2wJNj/1pnnV
4a3fDbYxVzIVFTnoMtv+D3I35ZXbbuv/86Sn9fzdjGn+e+9V3FGlRn415/SxE1dmtt7Y43K8/P7h
b73P1m0/mvGj/ykTmz1FV4MXbjQvWGIz5cKmTcKkGc8W/SCPXujksGjMNH7wQZF8/ICWk+smBsVt
SB96lbhzR2p5c+qTS9LqNpHNDFlVBh1b8GQhEuFZ1n/Kjk7korwt+uolVDN3Iy2fc2zxZae08gGP
JYsMbQIRi7pm+v4F3tt+Cz2Q2GfX6qlXb2cG1D+zXbDo2IbipMFB59T9vrd7ARzUGuCg5nSFR/R5
2u+eZP194dFHjoD0UYEgGvIDrsnbi/JRPtqqF1klqjf+J8IjR6KXtmqVH6FQkRfi/RIj8cjE2KCA
sEBvd//AwDB3aX+pt1cvwk7Lk8X7PLknkkzhiXI1eYH+P7q3+dVsPNxkcOnF+Q++bL9cd+oNb5bo
7poAJ2FRx6D4tUUNLnM/u746RYH8Nq9i0ORfKsc9KoR+aYnIfaNsHven66nyOSfmSRYv3b+j7WXF
lbQb7oTVIgf3opDf+y+Y+e2FqQEXjj16enLEvrfZ15/IZn15e5+wbfnuSW/PTT9B67MLLop3RF9N
2mpcWz9md6qzW++TK9obh/tZxhm3Bl6wSgvp478xRWxUPD9Y8BraMPfX1IC1ji0ZbgPE1ck3c++u
dp1fP4VXsRxaUWzPaHRRodtc7D9feHX/MtuBe2KG0YuT1BEb+squzJ3EHLql405dFMt/48ZXPqsr
YpaVVHoPc+Yt2fz8eu8lIff7B+uHU+8cgtP8KXuQ4HuX5u2Y0J//+uizisWdp96LlHr0GP9KpKQp
UGWk/VsipS5Kmp6d9XvxH721J28FPWx+++vpKZlHnG8O334cqqmQjNxvP0zY8s3LnPN1HfVHNxdZ
m9u+eHnjyKbtYbBZwLoBAQtUr4/5rHKasc1gi0bktHVj4Q0X1q/T4641hjRs9RVW3xVcsby8Q3Yy
Nj44Zlq76ZVe355dUHd34I+//dkWJkmF7w2ZMqGo9DdlRx3ePHfRjIV7Rps1GRH215dVpM22dHbe
F/V5UMTEqQ+vnp14Jc7NL/iPsDB4DcQxeHIuyvxEeH3Zhqfu9anON3bXV842Kto05o3YcY1SmBHu
NDRoWvD00Ftb9x+bM8Sif0rOrKNzBqXQoCOviNDI2GumU3Y9F/x5xeyak9WmwU+KrzvcbGFVCy9b
Bf0U6VWDfQk8VgMCw0R13d+Ysr2XSL676mqqPkCeTjq1sVAvjv49Gpj3Xc3Ai0fotxoBr9E9EPMC
pn4Wwr+cuDvGdKr31hEjvdNU9542PSMy9YZwvIYSKU1uVS5//f2ppQ5V9n/hPTr8A8+E1cBQdlwC
EYK4nWxu4CsVfxTdyGaNUPKsSziNFae3uxXuu8BOEM/Jt5g2XKGk+5mdG/ns4OKAWGmRyYW1RRei
Bz/fNtjzLGN/sXDYpsem3wwMyTG/qfJ3PVZ/VTHtyIWFEdvOH5lm9dnFQei+9ZGxFydCDkc+b/+a
syzm6ZovrXdO27Ap2s1q3dzp/Zdc3rHkXuFzG0bqw+y5GfllsTamvqrBn+WfrwjwsV158+jcB7FW
I8eOKmPibcPOZRadG+tIHHo40P3CxrLmzJFL07YcWZEe8PlaKHPKo3VbJ1uvb3GyubI55JFVxcot
Q3++b/fcvWyL+U1rz3HLqsSGifkH5Rcnj3M/cLg5OHX1QrsfJiytQayJGsT8nZboXjUIB6CY/3Fz
/PCIfO/gZujMsSmVMNG3RYN3F78wmLO7hebFBycqQQSC49XL28fPZ/hHpmh5N2bEavvYJ70WTL30
y+8vG091sG5+4J9IE6lvNBFO+L2TtYavtggNfzng7rCsWXlnbh5Rvyn4PuXPC7zi6VmbV41Pv46s
6Be9ffCl5wc2DfvpzAyjO05DDt1uXRhacGLd4E3PrrWeOGd2ZXN6r8iB07Cfa72rMlP21ewMwDXO
0cjhx8svrMrKi3WbX9pnrGJc3yz3c9Y7KqY6N5/jOi4ceL42aURfRda3tOd1+NMYh9MBuLKl5FYz
LOrt/MfoxhlqX/rdz0+V7zy1enZn5OlZLmHx0uDDm22f33VMfniT2Z648fGbgQNGBZ+M8l/5hyRu
1RXPy4ukJZdC+jdq0t6sur5hy/h9Xy+Z/3PSm3GtwVvGx1kPGOX8tP2lLGSa2RTl1PTpdxurDCHo
vwDkUY6YDQplbmRzdHJlYW0NCmVuZG9iag0KMTI0IDAgb2JqDQpbIDcxMSA3MTEgMCA3MTEgNzEx
IDAgNzExIDAgMCA3MTFdIA0KZW5kb2JqDQoxMjUgMCBvYmoNCjw8L0ZpbHRlci9GbGF0ZURlY29k
ZS9MZW5ndGggMTE5NzMvTGVuZ3RoMSA0NTYzMj4+DQpzdHJlYW0NCnic7H0JfBRFFver7p4rcyYz
uUmmwySBMCQzSSAH55CLIxyBBEyAQIZMIIEkMyYTLpGEyGUAXVZWOVxFWQ9WVyeiAgKKK4orKiLi
eoGgyIoaRfFCJPO9rpnEDEzcdX+43/f9fvO6+9+vql69qnpVr6prpjMBAgChCBwU5RWPHf2PqPdP
AWw9BBC+bHRefgEksvsBtryDUrGjiyYVSzJVwzD8I4azRhdPzTkb/2kiypsxvGl8SfGYWZkRLwAE
lQCw+yYVm9IaTy5/FYAI+Sum5U0odX69rA5ApQEQna6sszoWXlp0G0DdZpRpqFzo5EtabHMAFs/E
8KdzHfPqtj49bTWAXYHyn8+zNjogHGRY/suoTzOvdsncVx9Yg/JL87DM26ptdYtXnhz3PID2AkDZ
w9VVVtupc394CHWhPsioxojg6qAPMbwJw/HVdc7F+V+KsD5MFoC0T6290tr48sIagJVvAUgcddbF
DvFU8VyU34PyfL21rmr72dKVAOuxPKXVYW90uhfAcazPw0K6o6HKsf+eyCcBnGgfdg4IthVJHivv
f/rPs9XDvoNoKQj0t8NLZML95Y2HXr385JU7lDukdwCL7WLAQ5hPKu+cgnbKwvSvlTtAiek96QZB
ht0NWd48DGhgFExFJkP0uSeGW8fsBxFIRVtF6TCQJND7eHY7HGdFUmDkUo4VcXKGuw/EbgvwMwSL
ChknFPM8xOHRII7tLINXpHLyGA/kXiGNqxQdE1oKREobh8Xs91SIzYIibhcxwX9BIhc04nWrl+8r
XF5+ZQ+Z1v9Gd28k+RMMvZ76epJoM+T/N/nYn6D/9a5LgAIUoAAFKED/O2J3E6KDAUk+kYTQE7xP
Dr6U6l9RkE9IcZ2qF6AABag3EtwUCb3tR6kbpCB1d+LeJAgxiKIc5IgKUCAqQem+AipQIapBjaih
GAzBiCEQ4v4ZtKBF1EEoYijFMAhDDIdw92WIgAjESIhCjIJoxGiKfaCP+yeIgRjEWIhF1AOPyFPE
/Yn7Eu4S+iIawIAYDwmICZCImIj4I/SDfoj9oT9iEiQhDgAjohHxBxgIAxGTIRkxBVIQTWBGNEOq
+3ucjgRMgzTEdEhHHASDEAdDhvs7yKCYCZmIWZCFmA3ZiENgqPtb3FcMQxwGwxGHUxwBIxBHwkj3
RbDAKMRRFHMgBzEXchHzIM/9De4bChALYDTiaIpjYAziWBjr/hrGwTjEQhiPOB4mIE6gOBEmui/A
JJiEWASTESfDFMQpiF9BMRQjlkAJ4lSYijgNbkC8AUrdX0IpxTIoQ5wO0xFnwEzEmVDu/gLKKc6C
WYizYTZiBVQgWmGO+3OYQ7ESKhFtYEOsgirEuTDP/RnMg2rEaoo1UIM4H+YjLoAF7vNQC3WIdRTr
oR7RDnZEBzjcn8KN0IDYQLERGhGd4ERsgib3v2AhLERcBIsRF1NcAksQl8JS9zm4CW5CXAY3I95M
cTksR2yGZvcn0AItiCugFbEVbkG8heJKWOk+C6tgFeJqWI24BtYirqV4K9zq/hjaoA1xHaxDXA8b
EDfAbYi3IX4Et8PtiH+APyBuhI2If4Q7EO9APAObYBPin+BPiHfCnYh3wWbEzbDFfRq2UNwK2xC3
Ubwb7kb8M9zj/hDuoXgvbEfcTvE+uA/xftjhPgU74C+If6H4ADyI+CDFh+Ah90l4GHYi7qT4V3gE
8RGKj8Kj7g/gb/AY4mPwOOLj4EJ0UWyHdvf78AQ8gbgLnkR8Ep5CfAqeRnwa8T3YDbsR98BexL3w
DOIzsA9xH+K7sB/2Ix6AA4jPwnOIz8FBxIPwvPsdeJ7i3+HviC/AIcRD8CLii4j/hJfgJcTDcBjx
ZXgZ8R/wCuIrcMT9NhyBVxFfpfgavIb4OhxFPApvuE/AGxSPwTHEN+FNxONwHPEtOOHGi+Lb8E/E
f1J8B95BfBfecx+H9+B9xPfhA8QPKJ6Ek4in4JT7TfgQTiOepngGPkL8iOLH8LH7GJyFTxA/gXOI
5+BfiP+i+Cl86n4DzsN5xM/gc8TPKX4BXyB2QIf7KHwJXyJ+BRcQL8DXiF/DN4jfIL4OF+Ei4rfw
LeJ38D3i9/AD4g+Ir8GP8CPiJbiE+BNcRrwMP7tfhZ/hCuIV6ETspOgGNyLgjAvsfplMBixwYp+Z
XyymJ4DYz7Ig879aSHxCouuzBAUoQAHqjYKCgq71XYmEnlc7pIcCvhugAP2/QHK5HDgQ+fquVEpP
AKmfHEF+4uBqUX8LdoACFKDrSAqFQvBd31UTn6OF0/8aK/evKOC7AQrQ/5SUSiX6rtjX837Vd3v5
ssFXNOC7AQrQ70wqlQo3p1f5Lu6BhdP/87HSvyJfUX8b5QAFKEDXkdRqteC7vqsm7oGF0//zscq/
ooDvBihA/1PSaDS/0XfV/hX5ivr7kCtAAQrQdaTg4GDcnEquen9OQU//e1uNf0W+ogHfDVCAfmcK
CQkRfNd31VQq6el/bxvsX5GvaC9fAgcoQAG6XqTVanFzKvX1XZWKnv73tiH+FQV8N0AB+p+STqcT
fNf3ifdXfVfrX5GvaC8vcAQoQAG6XhQaGnqt76rV9PT/uZTOvyJf0YDvBihAvzOFhYWBFGS+T7wa
DT39fy4V6l+Rr+/28vJVgAIUoOtF4eHhgu/6PvH+qu+G+VfkKxrw3QAF6HemiIgI9N0gX98NDqan
/8+Uw/0r8hUN/EpDgAL0O1N0dDTIQK7xidRq6en/c6ko/4p8RXt5cTJAAQrQ9aKYmBgIAoXvqhka
Sk//e9to/4p8P8Lq5cXJAAUoQNeLeJ7HzanSd9XEPbBw+n8+jvWvyHcbrLk+tQtQgALUG8XFxf1G
39X7V+Qrqrk+tQtQgALUGyUkJODmVO27akZF0dP/3tbgX5GvaC8vXwUoQAG6XjRgwADcnAZH+kTG
xtLT//NxLz+DH+MT6uVL4AAFKEDXi1JSUvABV+v7ARQ+RwsnCOc1NNC/It4n1MsXSQEKUICuF6Wl
pUEw6HxXzfh4eoJwXkO9/Pse30fpSP9CAQpQgK4jMd5/lKEDlv7XDNy5EvEv/z2DMAx0/8ewLhIS
Od8fctXqICxccNo+fsow+y96tE9o6m+t+e9LHJSCsHPXoF0Y6AupMAgyIBsmgA0a3G4QHkvMkN4z
zv2x7+H3X5CAZVjJkOyszIzBg9LTUs2mlOSBxgFJ/fslJsQb+sbx+tiYPtFRkRHhYaE6bUiwRq1S
KuRBMqlELOJYhsBA4orILW2PlBij4+LiypK94SjfsItN0HwT54IQH6HoqzL1uSocc1U4tjs80QU6
V4EhN09Q3A4F51ygdRGdC4RSiHYCluTNlG+bb8ivcUXm2ioqMEeeQcO7Ci6YvFWhutvlQbmG3Kqg
5IHQHiRHVo4cyjraScEIQhmmIH9IOwNSZfJAV4jRxSTkC9d8l2VdBTKGPNSEKdpfUva4D67vmQSY
rYvTejjiEue6JLRcvsZlsbpgHd8+8GDb+j0amFNhVNgMNutMtJwV69gObEJ+dYlgx3zhqqjmXRwq
pxCNMXx+Nd9mEMyRX12BaMjDXH7jMVqWW7om7mC0KwTv+a5go2s0SoxeejaabcuPqOGFYFvbGt61
fXJpz9Q4AcvKyiKwwm35BlSIyvLn52BTIkzJAz1t8hrAVjFfKHO+Vahn/ny+bV0Vret6Wgcqml+N
HWP9d1Jtbfk2Q77NasvxaM91WUroDUqml9IGounyyrxRXgFM4WhKRV5ZnMfYhVNKc4WKGax50Z5u
746p8MZgRH5XIi/UYCwqcPGVvAumlBpQNEuAqixoq8yigyeujGCuol9yuUQJGgPf9h24SIWh4wvf
GKs3Rpyg+Q4EtsBQUNHWVmDgC9oq2qx73C1zDLzG0NZeWNjmyK/AUotKMdce9zProl0F68tcmopq
MgRtL4yAgimlI6Pjgsu6gkVdQcAhhQNLTpuDVsBzrPeGVoaS0jgeDTW1tCwa7VQq8CXIe+7CQMKB
m4V97DWbYKOqrG7z5HrZuDhhdK7bY4E5GHC1TC71hHmYE/0EWExG7I8KIeVgV0roVCGlpSulO3uF
AUt5kk5MoS5pYvep1oRp86uHuEjYryRXedJd2txSNpop83BMNCtwQUb09GGucCPy/Y1t2AlvGFwa
o0tUejB6WBmvCcYZQOi9YkPh5OmlfH5b9yjwxHhbKowDHOoGa3Wb15WEQY/Dg2AHWXLHGEwwDNXw
QkSBy2LIMdEU22lwsacxASeNnHYDWTu53ULWFk8v3avBPeHaktInGMLkVuSUtcdjWuleHqdhGst0
xwohXghBoTBUn2CkNCl6rwWghaZyNIKGK/cQoHHSrjgClXsYT5yGxiElgyW85NNzffT/wsvxLrG8
TRxvEf64+TiD3f70cZkmw/E6QXb3a3JNxquHQ/TIW2a+otBkvIyBl/B6Ea/DfwzR37s1RL9zK6+/
G69tW+P1W/DaujFa//XmEP1Dm8P0d20eoL9zc4L+T3gd3Uw2Yxb1Dv0OZtPGEP0deG3EiD9u7EsL
CN2IpWk6+A5LR1EHZzlNik45Tgk1skScwqIt+2WqjJJ9Ffsc+1j1M8SyRxacISQm7ZbJMz45G63/
GC/Nl+TkByF60wcjP2Deez9aDyc0J/gT5hMVJxwnxIK0+kSQJqPoUMUhxyH2+V2RtOC2Xaje9MTI
JxjX4yF6x+PkzWdD9MfwOnqzWf8C3g8+K9U/96xOfwD5Z5uj9betj9RvWBepX7/OqF/XbNS3LS/U
33pzof7Pq0L0a/Fag9fqVYX6lauM+ltWDdGvajboTauaV92+ij26itzXGqzfjldrS6F+RXOhvqU5
Qn9zc4q+efkgWp2/LFdpMpJsQ22FtjJbhW2hTaxRx+nDQgfoJeI4fWTEAD3Hxum1IQP0A5PVA4yq
/knqxH6q+AR1X4OKj1PH6lXRfWKUEZFRytCwcGWIVqdUa4IVCqVKIQuSK8QSqYLlRAp8glJo1C1q
xiJuETMWtoVl1DASJkEzcGrcCo0EO7LPwVFwgzR6qFSvHiLVs9lSPWRJ9UXpxBVSCIUlOS4twXtx
jivdWLhHClNcacZCl6xoRmk7IbeVYayLWYuDssTFrcVxWIJrzfQZpXtIpJC8ii49yO0hLas2bIju
5srKjDEuW2FxqcsRU+ZKE5g/xJSBEanR2djYaOyF2mVC6bYpOe3nOWFhsrrOG/LaPztPFynXZ4Y8
4rKh++Y1upbnV7uWG/K6Mjqb/OprxIMCZZAVgo2N4E10+s3hqR+AWCf8/ZzomPA1qgd9HuPKPTHu
M77YaXN/d70eFaXw23+yhhxjkq6KmfdbyyWbSAtZTCrptYjYiRWPsaQP2UxayY2kjswmxXAXnCfR
REukhGCKjBD4jsQJYbhCDpBgeJeUkRzUZfYq7YC34CJzBnYivxIexpF5Aj6CH4iKJND/ZbsQn4X7
wzwYB/lkJCki1WQFao0gqSj1HOY9BxewLBVq1BKe5JKt5EEcbceYLczHzCVyKzOBucy+QoJJPHwB
PzFzmBByP/kWtqL+gcQCz8DLcIJ1QQQ8Ak+xaeyDsBG2wXH2GRgPjLAsSYQfw2XxptstZjgQLtNr
J1+jkGqOC44LTkAgKPVTiwguC3doEbYqDBRhxlwcIULuqXuBcZ+2ZMg0mYvRQ9mjQORoHiMZRiag
2eykGRuhxqGDWx/JmybZJBkjYtlmXEUYyT9EYLqSZiofaSamcoFJL19z5WAqKTfKSFw0idPGsbmd
JzufOZzbWTucbBIdu/wBF/+TCS3OEBN7mDst1tE6DLf0IzxWQCQAyys1mRIBxBKWYViAN9SMWoYL
FPeG2NSRbirvgJHpppDs7FQzETyAsAatAS/u9KGPxrfjJdZd2cVMEC6sdKP7jGiV6CsIBgOMt/SV
cvbI5khHXy506xD1OPVSNauWxG4dLM4XN4lZcWRIGwgTogzrAZAQ3SbD0C6ZMlNmMnYEpyPAyPIO
PFPN5UTHSMScgY8fPCgkMyM+nefIoERDX7FEzITqwtLTMjIzQkSrKsrnd37yVOflzs9mzZ5NDPvQ
uMrO5VNLJq1LG5hcMn3ayuQBJk7yeuei27dv77j8NrnpT5se/a6zs8lx28rGzq/sC+3bFtkJTp3C
f2vmHhKdADWsssxSsCynVKnWs5wOOU12EBfJlXE13GJOxOUsYgmrCdYMURM90ahNhFdb1LNJkdpO
KtTNxKFWiCzYPLWIEJGCBZZnzayF5VjRTrFYIVax24jQqWjhDqFXw9NNJpOx3CjRlJ8tN65JMd6s
OUTWaA6mJhEt9m8mNnMEyYwjcdyCn2OHkeynOg9n5W8wDRofQsZ3niVphGO1F0N04ZNGXjZhK/q6
T4taRRcgE3Za6pQipi/XP0ak6xuVZhTF9zWmZ5AhoiGRg/pmJ48Ci2xs5Bj92OQiWam+QrZAb011
EqfUIbtJs0y/NC02LTV0W0UYCYuLi9kSxiZIzBIikci3sJGqtsGhvEWuyeQtWK2otrjQ1MGc2Ch0
qwrbbTRmS4VU3Eea0tONQqeGhGd34Ng1mkzYvcIAGxmSjTccaMIYK09QEUPf+H7a8FiCvTp4UGK/
FHQPrYcXOryfFrs/LQzTQ3ViiYqoCeW4gsrL257qPDu9oN+Mj+rve8rQb0BL0ZTsqa/tuHVJ9dnp
CfllRNbc8sqY8cUjB6evHMnW3eFwjB6bm0LyyKiJSxymYcFaOZGWzRiTl5NMyKhYU79+Sctnz1iX
kjxEpQppq192RPDlvu6fRbXoy0GghG27FAq5co/7wV1qTSbev9wtU2UqxWKJZA+6+DiZGl1KpA8i
QeGESGWE2SCRcyyrUGUrcoBNZDPYAvYG1s4uYyWsSq0aEqTBwcGwrFokNqMisYwot4pErETMgglN
ZELzpBlxkKAN0XrCCDEKQ+PgwSt4lePgCQ7JNq7RnDQapTgpGFgcL1oSx6YjipKPFHVuLLpiGsW2
kDX/OHLlpaVXPiQ3dD5AZpAotuLnOxnNlQvYupU4XupEHTj9pMAzlunDJRMkMyQ3S5rDRGy0VmqQ
JgUlxSalZISaw4ZE5IZawsZGFIVOj5geV55QF1HRpyK2bkCT3KFr7HNTbAQw4WC4O0qj0W2NEgex
oJAMvBsi+baYxPAYVi0Mj2A0kFptTmoTW4LDMx1iIvZ6v1jwAOr/4dl0jIzEIYPznakjJDu3pHQv
JKKcQpMZvsdzD9rjfuUJuTDWjGXCTFEu6isMGu9EgSOFxZAwckbgiAoL1QDrGUgq4pk5mEdvOjJ2
bNEtSxcR24mil+PTE8PXlT7y9cgJ7bMPn+u8RbWsKb1CLw+eWVe1kR8ycuRL68+QhW1rtkXLOk8y
yqS/tvcbdPSZzq87tzJDq2eHygYsTV2/epcwVlrdH4sWoPcJ1nzMMj2MSSM5xEE4eaiRjY+ITxip
HqqZpC7UzGZmq0uCS/oVG+vDFkTY4paKlqqa1TdploY5I8KACY5KultnuFvHASuOkgQFqbaKIxPb
wsODB7Iyvq0Z3VywpgKHDIBZJtiyxzRKPa68I9hjSTTiSOp+Hkta1AMtaL9gAbgMRQ8LemdbtKPX
DzMFr0wcrIE46nkiakHvxDuCiBasXLKs86+nph3qm54Y0VrhujB0xh32Vz4ma0jYkiOFhRM7VwnW
W9aUXJGg0LDn3u9sWd22OVpGDGjAJ3YONL25m+iINdsy6uUNaLx11bNDFKk1wud9uPJLHkN/U8D3
u0wswa5+Y5cKVy3cRVsycNECViJSyoPZcFGM3MQlykxBA+Rmdoh8nLyUK5Pbgmrly2QLg5rlOmA4
FoehRIHW+tkirHywQs5IpEA0JJFkkAIyC1ffZcLjikomwqG435KKQuJWiVSizJbmJEoyJAWSGyRN
EpFEqVIOkTylxC5mREwQK+PkwLESGSsBal4TXoJ1gy2iuaJmEStqQNMyLdS+5WWYYi4jmnMeD9as
uWI8eJAIPr0GPdl4kIRgX6XmTkWhciMYy3HiJ3FyfHISnFk8rbPlTOe8zh9Wfta5iZSSvTvIT+RF
9vUrf2C2/CwTHbsSynwujLx8XIXfxtU+DBLhDkv1WNWEhGJ1SZ/yhAVcbcIyZpl8qapRtzRWERqe
yDJAyGomTMcwYf2yw3L0DElkBjP5TDnThK3r17/fkDfwAQg3l3ZmOdOCUUx/dX/C3xKkiFIwin39
wiDqrhANY7hTFoauakJvNRPN9+Ud5UKbbhRa2XDWu5KJhNnqYCqU4/MKDiiJZ0yhm1LHDNeyHjft
8stM0dudmzvvjB40yZx8w/AdL8ybXnrhlplrx9jvi5kVP63NbEybVZFalyrWXfqiKW5wmE731gvb
SWRtzbKEfuTUlbGq8PE5Q3dPrZo5MFYYSf1xRZ/JzYMQuMUSmSEvkE+TLwbOqSAShVwqXS0L0slk
QSGCK6XhXBISolPrTDpGmx2UkygbLMuXTZM5ZSKZVqcdIturxad/BrhmjuE4tVqulmHH4xJejn37
JGeRKTKNZekmc3cnC6boMgFtPzqYwdNWFjvWMy+Fcwo+otQ4emXBY513Eo7MT5x7ZJ7WFMIqpNLQ
8CsarvKBwlmM5xNxvfewCv9xs9fjEplJZmKHORknG02PA//ZwZX+puOj3g/R6MAROAJH4AgcgeP/
zwPX2wJ2Yvd3qmnQ9SU1AQmGPDwDcmj28ixkQJ2X50ALi7y8CJ9i13l5MT6H7PDyEnzK7dIjAxU8
5eWVZDy84OVVMIBRC9+Uc8K3wrHMWC/PQQqTTXkRxkcxi7w8h/LzKC/GeB1zn5fnIJ7ZSHkJxocx
L3p5DhKZpygvpXq+9vIcmJn3KS/8RqeNlXt5AirW7uVRDyfz8izUsp94edTJXvLyIojg4ry8GOK5
yV5eAgu79cigD9fk5ZXMZm6jl1dBiSSJ8kFC2yUbvDy2XXIz5eUYHy/Z5+U5GCR5hPIKoS2Sr7w8
2kTyIeVVQrw00stjvNRTf42ww5fmenkO0qTplNcKbZQ2eXlsl7SK8rirgD7SbV6eg4HSdZQPFeoj
PezlsT7S3ZQPE+ovvezlsf7SzykfKZQrS/LyWK7MU7dooZ6yGV4e6ykrpHyM0KeyVV4e+1TmqZvw
sWGEbKeX56C/bAvl44V6yo55eayn7HnKJwvtkl3x8tguWYfAS3vYWdrDztIe9Zf2qL+ih7yih7yi
h/0VXvvv5NPMqWZ+Qk1lg73RPtfJ59obHPYGq7PGXp/Cj6qt5afUzKt2NvJTqhqrGhZW2VKmVTXY
rPVWvqaRt/LOBqutqs7asIC3z+Wd1VU9FM1rsDc5hOhKe53DWl9T1ZjSnTikS0mOvdbGj3Vaa2sq
hbhGLJUfnGJO5/t3yyZ5ZZMFWY/oBKsTy1rE51obnFUNZfYmvs66hG9qrMIqYLXm2uudvLWRd1Q1
1NU4nVU2fs4SWrn8qeNHYWoDDTga7LamSidfU88vqq6prO6RF+819ZW1TTbM6rTztppGRy0WYK23
Ya4aFKhEqap6ZwrfVba9vnYJ378mia+qmyNk+kVVfZew3xpRcVtN/Ty+oarR2VBTKdi9R+mYvVvX
UFqB/jVYirOqTuikhhos1WZfVF9rt/YsFOts9dS0qoHH5tqxKMQmp6PJyduqFtZUVgky1VW1jqsa
VO10OoaYTIsWLUqp6+qAFOxAk3OJwz6vweqoXmISimg0wTSoggaw4aanHi8eJmJ4HsZUgZOGK6EJ
Q41QAwsxfLW0E5qIEvnzyC+gkkuhw6/kXAzbuqU8+q6WKaClOpEr7FUqFcy4EPDsWtxSHWKfQ2zH
0HZ2H/sou4vdi6GdmD8NpQRJHiagjkrMb0dtdqyFoD0XuQZwULRiTA1y9ZCCKaOgFg8epmDcPKjG
tEYaqsK7UIuFtBUp19S8hsp5LCLotGF6Hd4bsL08LVdIqcZY/zWaR8NNWKcu6Uq812FYKKGGlp/i
J+eQa2qSgym11NJjaQ/W0jxdco3etvIwGPUJLzzxuIW/Vm/SVXqTu/X21DqBWs/TrkXUrkKLnTRn
GW0PT62wBO9N1IIeK3isNZfWxEntJoQdNF8dpjqpDqENc2jeLsvlw1QYj33kydvQI8VBa2/DUiqp
xhraxkW0rEpE/+V6woJsJbaoifaajcraEW003YEpnhYIlrB5y6rxaqj06qqiKIygq9stpNdSrj/m
SsK7MDLmdJfkr1b112j+z230i3Yb1TQP4xro+HHSeld2j3f/bfeUfm29hvawgNAST1uctLwuTxL0
e9pqw5hFtOV26g3+W+qxs9XHplW0X+1e9LTKwzdhyEGRp7VdSFtT1a1HkKylHvRrPVRNLedAjzDh
sYgeKdSivh6Q4vVAE/JLaAvn0TY6UMMSjO1qRSP0PofWeOfQ3F+dQ8djfDVyC1GjkKPpqvlPiL06
z2hal0YfL78R81T5mVPPY+oC+B41naeWtJHJGOPsVWejdxa2d8+UXfW4Osc0KtmzfVVol6ulxtD6
LaQrwK/P7TwUee3chGPYM0qtPdaMJdhX19qvp7XtXouc8c5Q19SZ03MjuKFcLpfBZXEWbjhXyGVj
bBTGWLhRGJd2jf4S7xp35t+ucQX/QQsLBWuQVMHLiLm77xb4kRO81oEpdjqi7cRKx3y9n34YT+e+
Gur9TqydJ57umcB9Ea8mON7LSwcsCDsTDRC32/PGMP0ltjDwvknMPo3I9dibCb9uLLw5S2qtznrM
i8/240vG8BA2ZdIEXnhbmL5L64Pd+bJwIfWfL7ZHDtJ9J8DU2itrQUVRR/UQrzYG9zsqb0jjvSdi
LO472FvZNnYdu174IgEuwU+YpCc8DUmBsBuoFqdXm1df+Fzo/mWc8Fnm1vDpYtmA1WNW/6AkEmZ7
a3ghRo1mCEmVm2VikVHFMlEiMFvFQUYx4UhrJkO47cXmyeaBPWL63B/b0geG0WMSjudGuoJW0blo
hHCY43oo43TMnC9vJB+tj7s4WnWKyT/30ju6jo3bW0NSza1chbmVHb+dFd5XCEp5JPiDIvfMPx85
2JU7BqviSDWak8TsVE6u7ZtrdyxpEB73+f6VSXxqdnbmVRuDlNRYcx+PcKjfLUNqnFkvpLPaiF/S
p9jtTn5Uk7Pa3lDjXGKODVeaM81ZaUjpqea06eHK1DQMDsZIpOnmJdRWqESsZaYWp2rNwUJAqg26
wdpYjY/KTixGY1YJkRKtZEqVrc5eb+uqWFBvFTOY4zwVi+qZbqvii2vm1QsP4EW5o8ytpK9Z2d2B
hIiAbSVqwPggppUQ2L3k5rfLd+VnPzzo0dT3LiUMHrvo4GX9PYfzb/zqWMGnb61/YcH4KXO+3cK8
MOGdsbWm+BFVz71u2C0fs7u56WT+gb/erip6McH4zfZ/KQ36Y6Pif5qz5Whk/gN3jNNveW2Xqe8L
45KX2d8NjR26PluTffJA0rdzhyaTNHdnvzEPPlVL1tx9+ZknKptbL83cvmLlqttc3+zZtONo1oNF
q8L7rZl40vw9DP/2pUvDVzy7uqM2+6GUQd8/mfJ40M1zNi6ee/fmRuXqx785dJHfOylkQ+WRge+m
5Ud+uW/cnUOLiiNenzt5yV//tublaSPubS1aWy9qH/z8TfEHpswdvmXiq8bl6fUrR4uP3fPGuNVM
/Wr4y8E1HxYzLA78HSt+Mq/4waxFc8YkcApzkFiKQ1ckkrCsecX9QizhVmw1r7irRTPjDcdXNQ33
GCYv1z0x4Tb3kfsa/vfjrVUNz8O6YcPWBh8b8X3lFx9azGqhjlpC3JzIzOLNHCNEqLgwTvdqzOsL
wTHj8a/fOzRx6+S8lB15lRfMciFZzQnv3a/u4TqsMCJueuSx5eMSv3l9/0Tn/aX9nAOadq2+8sj4
TYthwvlXPo/4oOZF1f3LLjK5L72y5tUfi1/9+70HptkvVObtzIMv73x564k+e+T3Rio3/fO92L8l
3fxVx4ONj95+Kvu24Zvn78+qe3Pt44YrH55/u0a2ce2BzjOwb9DFH5Zd0oSkiD5PuvOOnAX9b9yd
dftpifIf5dWvHWgZtWDuw/t277tt0CvfsJplS79783TOhzd1njnzaOf3H55Q7nK8/cePJz2ddf+y
5LeGvz9IPieTuXfFfMOt38+svN01fV/2PyvWT10Zlf7d0M3bWxX3z163a+Du+x448sh7/NPPmSNX
8TrlgP1Tvh11epb54z/2r1nzvOOjiw898npLTsNCFc4xS3GOmeOdY6zk6Ag6F6p7+pEI55n/i14t
TDjZOMdkpqUNMqdlCxNOqjm9O2heccvvUjclHTg4dLkJk4qmdImzvYj/27nngPnWy/kNDxcvuOfW
SWA4+OxbMcPbyyxZFxs3tiaeuzMEit/t06oa9nrMvgM/5Gy4662fs6LO7r308RfHrexz24+/3TRh
ZsHOjlkX3vyoZkZU42e7+mzgXkvK224rM8VuLq8//EjE/6nevKOayrY4nITQht4UKUGQkgQYbmhJ
AGkRpEhxKCKKgJSR3gOD9I4Ula4UEVSULkRAUEAQBGmCUiURRGboShVQ4AXUER3eerPWe2tc7899
bs65OTl7f/t39l7Bhtg8zntQ4BV1YCoylV24PFAYf+MFBhs2Vi7cy7kmOtnTus/UkH8hNS4yArG5
pCn2e8wqVMm/oyMlIYLBjeL1s016VZmt/iolYrzaT/4r/dpFp97h3Xm9D/lHyzzmMSvTp9A+6kSd
ZxSVRhV0K7jIUHcguG+9TrUeVWvEcKXXQJMVmB6/GeV35rGvKXskDQFtlz0tKRhLM732gr165GPH
1A2Oz+xZBYKX92bP1yjG+FB6tHBLppsnRBiVRFc3X7nrGb9zfLxM21FPDmTqoB1u8B6CcgL7gvYO
+yPbH+CDHgbkAWw2OlsmQupzdcTK3fG76oirg932qMTnmpKHBM6A7Hg/k4cAjS/fEAyGKgByAOaL
DUAixP5tuWVnQRv3XSt5fhdQO/SBU4QWsDHMb7K4qOIHcAVVzarrgjbSxV6lbkB8SkXouvubzQ70
H3KuaccPMla7EVqXet9cmIC7evTOjjacn5s3ljYNCplm7nenmGLVnSEyxJ4/okdv6bXhnEFN7BQ1
5WTAllpsDG1B8yG5A+vxuTUPH9kbyqPM34g5t83rIHkWYPjzESXNkX13kbOF7Yz1b64FTnRNhLkb
hnA6I1uykglcsEcuiS/P3nqk7VDUOns4YaxMosDXG/urPeh8SCYFM8kqWVNYlZQs8CiS7hl7rvmw
h6S7LGyrBdEk+IuerUYrL++dJmGsnb5u3kwDlePP7tzz/ENOghpBwRzKftfaPTFaemT6ZJLpE/6J
Psz2dFf06kFCBSwv1fhMfH/N+Z5BP0bryJLhIwugAGlp9DZ6sGTzB2gdQzsnGw9PSyfXv6t1htHO
H0paVLXcOFs6NRQN6tcL2KvFJGtY9X5pCZ1VlBrURCXAKy5bj/Dph1U3aHcHUq6+9aqNeXK7t9jO
1dZHxHaiovJt+P2OufwN1ht0JwUQEl3Kg8ZQbvw9J2snLcOXxHlS3bXQJ0GvAo9B0EnL9Vk0xrBz
RzsG6/GnJfwrhKAE41P2PFZbQX4Kc71QIR2stye1WcPpgQi0mFcr4xQMS+uH38x0dPYdmVG8mJrl
xmiO1OM8ayGZ1ROqKypw+pxaDEkijFm/bO0eV5zjnFA622obc38441II3kO2Odk3p92CaoayNEKq
cjXpVJhKmEl4knMpn5hGu0sGbsR+IlA43uETb0LAcPIvIrgXcWj+P9QOMxXt55sFB3jnr4O7QOky
oauUel+6QDvi4oOMqUJ5FVzzM+DAnxPYIVB62E8gg51bNQ6k8q0S+ouM2gNQSTosqAY//RqW+OuW
1GDGWFe1uLcehg+VaCnFt6qOG4TzzGIvV+Ya05FiK+S5uz8U5rVW3j3Oz+1CYxfgQJEjoD7rSHDy
E6hSfx62GMdUS31B9tF0wKSrmdq1hJ72TmJ8/WgdssNvprVYsjfyfpvVY9luTv46PEn+ajm3RxZ/
1ACBwGoYu5TRYKN1FS6cYXGBSf4Jm42PRk1XUaicXulZExIwOYnlHYteGMIGr7Hxx1oHWVFBUxau
QnAS59WjqrcggzZrWqQhCs/Eckpn+vbMYbiln8b8/gwWfgyEJ7KQqilFsmpcudng8MM70aQJW3Tc
kkBKRnupt+FxuT73I2WHVsiAyicDKuGLPKJKEv/UV/xx8ugvINhmFIashmTIaJJE7TBK6pOJ2jaB
4PJ/Qh6JAEKfTJgzzs51u19xxEDtoJqBrhxaBSMpLovBqIhj1bGSKCHg0Kc98Xy7J3GD7U0dNLBx
3+5v/Ee8JQf/dFCV87jvYPJs+sZwZPcHxotsU/loOCt+U0e/AJ+KTDw6csfYDjKeFKAT/jLQ7a0X
6GUNzvGDS6HbO9Fuv4TOpP2Z15uq194HEC1HxQFYhrA4Xul39ZT44oFo9ED728WuU40fz40sWF9M
n2hkXcutDfvYF9NJefghGK8vQrEaVrkvIs6i1gwhptB1cyPNVIZXb189ZgBmqXRYttyYncM7WZ55
HVSa+NoMXSBSYyWmwR5sNOY4dUc0OS6KMSAXdNNbkDoN6UpRhRS8dJXUlCOgXXfsJJW3oTuuVNGa
mBhGY1KxORmpSStbXr4qdSfgWM5vgZInEYxZ95ZHFLKUZtTld8upr0CAJ0fVQeSnh5Kq/dWZ1tuW
AjK3ur9RSnsS479RSp4erlaW/xOl9GUlz71h/Y3+o6rfi1agucKPr3uibJ8ixkzvd4BCAvafbhI8
yVpz+71Df+RmXNs9PB+3wMr70aeE+ypgLnSRBjrFdb1dKg8eW0VX4ckGryz3GkXSvo7Re5WmlFop
zRo8xUzkHa627tLVlz92YeMAUai4NyVySvvx+Ls1lf1m4OkTUf5433GXzciDhYkZsVfrzLmyOQDB
kZwAy8u8CESj5iU5XGj0HKk3lKgnJiP/h4oKOB9ET7fQp8ndqRp3vnRRPM4MMVobF3iZA0+w+MAu
ku/CaqUKN5G7IB+j/KayqT3hBI+6scPFtgQdY0rQ01VAWU331YGoh8vM74hcr+AwwvEF7xHhsRra
YNZhmNwzNVQINJ1MrFQIGAwER/7AK9s3F8mvpa7s4Obt7PT52GgpUPS762jk93616FCMwO6nHGRq
/DkRiiK7Or73IkFe/9wTx1tHfn3eOh4AU2aaAmx3TaFHmQDG2WJByL/fCrwuHCT4N1qoB78jEzQE
DIq1QYvbr8a1YHAriJPv/HwcFXE+CH+aMc1yRY17Z26Kg5W0yTKpL5/i0VAjg/vHrpjBaj8HL7dV
umKNOWe4KnP2JYLYllHKIouQQlZfu72aYigmpqJZoxHfiWBxsuxfVqAPzE6nbeV80a1TuKaXgtAr
YTChZfawR5xtueHEiHY46mkTXaZ6VEGZg9apprbEgKSQ5/r81koX33q14KkGEXOmQiSf1gpSGF4J
cis4gy5/2FMmteRVLLps1D/wlEBsroPCxif1ndo7Cigspm+T+rMWi2+Z1fOy5jkVldXHGzkkXUdO
H5mSKRWPDn/QtdKgvohWiu07tDHXRTsgVVRFM389BMIHhEC4v54SFSoEQk8eovnH3fH7FPlN4qb+
7I7ZZgDnbl+k+1r4BZPf+ecTShQTOaMCAIacXlGSUjLSpn9xRc0ypra7ynmNIlaGfwxdsSi5DctJ
/Y5P2y5yRo5RLKbjHKV9gnQZv2NQyg3R90DGnUCIc8nt6z15akSt+rATpBndoy/OJ8qUZbn8Hp1W
+I5yNM8Pu8ZSN2kLhL9Q/qWr+QHlqjmvFZwK4r8MZeiR5SsznW+ghKhyLYPMLvCrFzM12bBfwqlr
bub+ZpQcQXySuBY/MRjYeitgJPw5M9+i2oEIlXjw6xMUbUPxr6WRGHrVjZOVw45nXY4J7JeVtC58
G/SA2lnKahX+As0j1m/h04hj91EwEPGjLrJDt4QKpeelwWWdjHSTBBMbG+04Bpczta5pQbgCThCE
3a5Sizy9rSgc8r61VTY7MOwlG7tEYIA+f8NklYX5wqiWUj4aBPoXssdAtQ0KZW5kc3RyZWFtDQpl
bmRvYmoNCjEyNiAwIG9iag0KWyAzNTIgMCAwIDAgMCAwIDAgMCAwIDAgMCAwIDM2NCA0NTQgMzY0
IDAgMCAwIDAgMCAwIDAgMCAwIDAgMCAwIDAgMCAwIDAgMCAwIDY4NCAwIDY5OCAwIDAgMCAwIDc1
MSAwIDQ1NSAwIDAgODQzIDc0OCAwIDYwMyAwIDY5NSAwIDYxNiAwIDAgOTg5IDAgMCAwIDAgMCAw
IDAgMCAwIDYwMSA2MjMgNTIxIDYyMyA1OTYgMzUyIDYyMyA2MzMgMjc0IDAgNTkyIDI3NCA5NzMg
NjMzIDYwNyA2MjMgMCA0MjcgNTIxIDM5NCA2MzMgNTkyIDgxOCAwIDU5Ml0gDQplbmRvYmoNCjEy
NyAwIG9iag0KPDwvRmlsdGVyL0ZsYXRlRGVjb2RlL0xlbmd0aCAxNzI0OC9MZW5ndGgxIDU5MDQ4
Pj4NCnN0cmVhbQ0KeJzsfXl4FFXW/rm1dS3dXb0mne4k3Z3OAumEDlkJWwqSQDAga5AAkYRFFkEi
ICLyDcwogriAy6COjqOOM47OYgiIBFFxQ3TcUGdxHcdx3xdkHCTp79zb6U4Q5huf3wPP74+pF/rt
W/feqq576rz3nFvV0EAAIA1JgNa6qePGLkgf7gR4vgggfd3YuvoxkM/vA3jOwF7ZYydNnGqpsg/H
7VbcHjJ2atPod3I/yMftG3H7+vHTpjZsubVLAlBXAfAPTJwaK10x5eJnAMgH2N46vW7CjFVfrlsG
YC8BEN+at6ytffSeEYMBNr2OffbOW70qNP6OURzA1km4feM57QuX3fncsskAl+Pxub0L21a2Qzoo
+Hm4PzgWLr3onJHFRRrANjz+wEsXzV+25qmd/lsAPA6Alc8sWtA2/5XZzTg4shT7Vy7CCr1APhO3
78Tt3EXLVq3Z+5AXx8I1AMiF5y5YcZ56nj0L4BE8H+7tpcvntT1zw19+D7AX97e0L2tb0y4V8m24
/0HcP3Re27IFP9tx4S6Ax/cDKBPal69cFZ8Ia/D8HLS9fcWCdrn9c7TdldPweMeA2loUgyWF13w1
Rx/+DQRkoLjnR3UD6fvBax7f/91l3ddp18mLcFMBDhLA/WStZwqAtQjbz9euY0fqj7NpDX8/lPfu
w4EDYjAdCyp+LqsRnGQbiCCLPxPL8JB5iXf+NljD3SUDp0kCLwoCJ9wOUtyA0CxqYbrjhKmhEGAF
/F7K7mmGp2WN/CEE5Be0TWgRD9GRApF7T4l7IfHi80mE/x38Bn4AuA/hOv4OuAnfu39I/x8CcQ34
2ft2WPn9NokHev2A/yUUpeoegoPisUS98FLiXdzWu/1Z376WD2H2D/l84TlYJByDLiEKi/F9qfA4
LEG71NGy6IAurhTuZf32wSNYfsByELpovfAaLKH7sfNbwvY/jy+Akdi2A/uOkK6kV5XtN+L/xS4m
TJgwYcLE/z/w9xOSmVliT1UQ/fsZDaI0kYDooGKyZgcb2Gm8HpRqt9nsNlumTdsF9l1OzWGDQqdT
Ux20uwkTJk4PCBAKsMK3chxkkOM9uFZRkVXGGmjIVrAi28AW70bd2pF10JEdjJ3gRHaBK34M3OBG
9oAX2cs4DdKQ0yE9/h34wIecAX5kPwSQA4wzITN+FLIgCzkbspGDEEIOMQ5DOP4vyIEc5AhEkHMh
DzkP8pHzkb+FAihAHgADkAfCQORCiCJHkf+JM00RcjEUIw+CQcgxKEEugcHxIzCYcSmUIpdBGXI5
lCNXQGX8G6hkXAVVyENgCHI1VCMPhWHxwzAMhiMPhxHIIxiPhJHINVAT/xpXWqOQRzEeDaORa6EW
uQ7q4l9BPYxBHgNjkccyboAG5HEwLv4lnAFnIDfCeOTxMAF5AuMz4cz4FzARJiJPgsnIk2EK8hTk
z2EqTEWeBtOQm6AJeTqchXwWzIh/BjMYN0Mz8kyYiTwLZiPPhpb4J9DC+Gw4G3kOzEFuhVbkNpgb
/xjmMp4H85Dnw3zkBbAA+RxYGP8IFsIi5EWMF8Ni5CWwBPlcODf+ISyFZcjLGJ8H5yEvh+XI7dAe
/wDOhxXIKxivhJXIq2AV8gVwQfx9WA2rkS+ENchrGF8EFyGvhbXx9+BiuBh5HfwP8v8w/hH8CHk9
rI+/CxtgA/KP4SfIP4FLkC9hfClcGn8HNsJG5MvgMuRNsBl5M+PL4fL4P2ALbEG+Aq5AvhKuQr4K
rka+Gvlt2ApbkbfBNuRr4Brka+E65OuQ/w7Xw/XIP4WfIm+H7cg3wI3IN8JN8bfgJsY/g5uRb2Z8
C9yC/HO4Nf43uJXxL+A25NsY3w63I98Bv4y/Cb+EO5HvZPwr+DXyrxnfBXfF38AV+t3IdzO+B36L
/FvGv4PfxV+H38MfkP8A9yLfCx3IHYx3wI74a9AJncg7YRfyLrgP+T7Yjbwb+VW4H+5H3gNdyF2w
F3kvPID8APIrsA/2IT8IDyI/BA8jPwz7kffDI/G/wiOMH4VHkR+Dx5EfhyeQn0D+CxyAA8hPwpPI
B+Eg8lPwNPLT8Mf4n+GP8AzyM4yfhWeRn4PnkZ+HF+J/ghcYH4JDyC/Ci8gvwUvIL8Of4vhi/Gf4
C/JfGP8V/or8CrwafwlehdeQX4PXkV9n/Aa8gfwmvBl/Ef4GbyG/xfjv8Dby24z/Af+IH4J34F3k
d+E95PfgfeT3GX8AH8RfgA/hQ+SP4GPkjxl/Ap8gfwqfxp+Hz+Az5M/hC+Qv4EvkL+Er5K+Qn4Ov
4Wvkw3AY+Rs4gnwE/on8T+Rn4Vv4Fvlf8C/ko/Ad8ndwLP4MHINu5G7oQe5hHIc4MuA8Cvw+RVGA
50UxNevzIn9iKMDJP/GG/RQZLOwPvUHXC4mCx78g8QoWQZAESbKAdNqDlAkT/61QNRUEQejTriAK
J/ay9NeuhW2idrW+dotosQgWCw8WXrNYLFS7FlO7JkycRmia9gO0KydibF/cPUG70vHaFVG7FoV2
MmHCxGmB1WZF7Yp9AfL/0q5CtasqLIVGWdr62mVJlgVZZtqVZdS4RZQtmqldEyZOG2w2G4hiv/Uu
qu7EXkpSu6hxLaFd5XjtIsTjtIti1hKZtgkTJk4D7LodtSv1xd2TaldNPBdUmXZVlKRKtaun2mXF
osiiovAg8zZ6+0uSJcXUrgkTpxG6rlPt9iW3/0a7bG3LkmCbRp82Hq9dRZEVhWlX4XVFTWhXsfW7
E23ChIlTC4fTQZ/w9GlXspzk5rCW0K6VadfKpIyB2JlqV1VZVSVVFUERdVXF+KxYVFO7JkycRjid
TtSupS+5xYh5Yi8r/gG6wMV+dhvq1vo97WqKpkqaJoIqOjUV47Ni0VS7+Q08EyZOG1wu1/Hatcgn
uTlsTdyXslPt6jaMuvQFrlS7htrVmHY10UUfO+ECWNP0fk+RTJgwcWrhdrvBQh/FJoER88RetqR2
sZ/DzrSLgdidatesqlWzWK0SaJLLarWCrFqsmsPUrgkTpw0ejwe1K/8H7dqB/bMWnWrXqaNu7VS7
nlS7FbVrtVhtElgltw21q6iyzepIZNomTJg4DfB6vVS7fQtTWT3Jgx174p4y+ydkLgdGXZ0GYm+q
3WbTbDaLjWnXQx8ZKxpq12lq14SJ04a0tDSQZeU/aFdPaNdJtetOaBcDcVqq3WbX7DbZbpfAJnnt
NsytNcVuc/X79oYJEyZOLdLT06l2+xamJ9WuI/EvvRPadaJuHVS76al2u91qt8t2XQK7lKbb7aBa
Fd3uBvuJhzJhwsQpgc/nO167GDFP7OVIPA9y0ZtPHhdK0kkDsS/Vbtdtul3WmXbT6dc9VBtq12Nq
14SJ04ZAIACqqvUtTFXrSR7KuhL3lD10AZvuQSm7qZgDqXaH0+50qE6nBRwWv9OBC1275nSkJaK1
CRMmTgOysrKodvsWpprtJA92PIl7yml0AetLQ9166MPdrFS706W7nKrLpYBTyaSPjK265nL6+n17
w4QJE6cWoVAINM3W99Vkq36Sm8NpiftSPpopB3wYddOomEOpdrfH6XFrHo8CbiXocWOy7LR53P5+
T4BNmDBxahEOh8Fq/U/aTU/cl8qg2s3MQN2mU+2GU+0er9PrsXq9CniUkNfjpdr1egL9ngCbMGHi
1CIvLw9sNr0vubU5T/JgJyPxn4Jn0iQ4mIlR10/FnJdqT0t3p6fZ0tNVSFNz09PSweHW09Oy+z1F
MmHCxKlFYWEh6LqzL7nV3fqJvbISa9sQTYIjQZRyFhVzYao9w5/mz9D9AStkWAcGMvzgSnMGMnKw
owkTJk4PBg0aBA6Hq+8rUk7vSW4wBRNr2wj9KlVBDsbfEL6gONWemeXLCjiysqwQsBZnZWaBx+fK
CuT3uxNtwoSJU4vS0lJwuTx9X7NwpbtO7JWDskXk00y5MA+ycTMIMDjVnh30B7NdwZAO2frgUHYQ
vH5PKHsgdjRhwsTpQWVlJbjd3r7k1pNxkhtMeShbxECaBA8aAGHcDANUpNpDOZk5IXdOjg4hvSIn
nAPpmd6cUFG/O9EmTJg4tRg6dCh4POl9ya3X7z2x1wBgPwpYRFe5g6MYdQdALkB1qj2Sm50b8eTm
6ZCjD8mL5EJGdnpeTgzjtQkTJk4PamtrwefzB1MVvmzfib0GQYy+ldIkeEgpKjdGxTw61T6gMFI4
wFdY6IIBrlGFAwshK+IvHFCFHU2YMHF60NjYCH5/dl+ADOSc5AZTGZTTtyE0kNYMgWLcHARwRqq9
OFYQK/bHYl4o8o6LDYpBqCA7VjSi76dkTZgwcYoxdepUyMoK56cqsvNPcoOpGobSt5F02TtmJMbf
oShnmJJqLy2Plg/OKq/wwWDf5IrScohEwxWD6/rdzTJhwsSpxezZsyEUyu17VBsuDJ/YqwYM+lZP
H+meWQ9VuImL3Vmp9qrqkuqqUPVQH1T6mocOqYaCktyhlY1QedrP34SJ/1bMnz8fIpGCvh9dzi3O
PbFXHYyhb430ke60RhiOmyMB5qXah48sHzk8MrImAMMCbTUjRkK0vKBm2BQYdvoHYMLEfy84SPyu
ugd4WiJ+fEkAyR9bJxxH+xwPbOT7/QCZ7jjJFzpyEw+WolTwJYMxya7AgJ1Ivhnq6seMbRh3RuN4
OHPipMlTpkLT9LNmNM+E2ad0dIiT/CjpD4EAtwEdRQhLAq70B8EoqIUGXOafCZNwwTANzoLF0A4X
wkXY8/fxONBvnhWlek1I9WqDc2FFslf8H//nn3nxeXCS37k/GQxv07SqytLYoOKi/Lygx+1y2qyi
wBWFOvi8+kh9pG3RllD9otCWSF1rXXFR45QZ9XWBcLi5uCiE1XWhDtIaqu8Ys3qRb0s97dDhinZw
efX0taTDuKIVC5G6cDiMLe6+lj3x/Vf2awot7jDaOuCK0I6i/Vuu3OOAua1R6/zI/LbZMzr4Nvys
HYAns2jaDHpO9NW6KNQh4N6MAljTe4q0bVErcqQO9zppPVYrtTM2hfcHOlz4Xt/hjHaMxR5j174T
4LfU+xaH6OaWLZtCHbdNntG/NUy5ubnZd5wZxkTGtG7ZMiYSGrOldUvbnviGuZGQI7JlR2Pjlvb6
1lAHTJrRQbB+7xWBjjFXNnc4WheRoThkOo4xU2bUBMJOPEo4TMd7xR4D5uJGx4bJMxLbIZgb6AQj
Fm3u4Fppy/5ki7eJtmxItqR2b40wW9fO4AMcHrhxaqRx8swZofotrb0n3FszJLG1g4PROyJk8+Qd
Btk8deaMLgf63+ZpMzo5wtW2jm7ekYttM7pC6CislqO1tJJuhOgGNBI0Rycns/6BLgNgA2sVWAXb
nreHAKuTk3UE5u3hEnWOZB2HdUKizmB1FDgYrnbajP5njS967gBdMC2+38juHFha6egMdRqdkzrb
Ozd03tbZ0flC51ud6v7OLzo59DWj/b50X2WwjujTg9O5iU1zmrjl08gvpt07jZs8NV2YMjVNmDrF
K5wxboowZlyVMHZcqdCAr3EV1cLwmlJhRM0IYWRNWKityRJG10wRRuHLwFdNRalQWjZfKKsoFyrK
pwnlFdnCC+VvlX9Rzu+Jf7ZzV15D5Z74Wzt3OSL4/plh26Xolbv8DcLqnZftxNP6YudO1uOoEd+p
5Fbu9DQIl292C+1L29dw+i1/u5Uzfp6WUWnckhaoNG5Ix9L29EDlZRvdQf1SfaN+tb5V3xa8NHh1
cGvs6g0bN2zees22jds2bdusGz9RHJX6iuAKzjhfsVbqy0joIAk9SWoOfH6ACz1hPMHBXAJzHXM5
o+22Nk6fRYo9TqHIkydEPdVCocctDPR4haAnWwiHaoWQZ7jwlL9e8AfGCgH/cMHvKRW82M+Np+vy
+AUnvto9xPCMqq3U7YVBkIjtscag9dHGoLq/MajgS9zXGBQebAzyXY1Bbm9jkOxuDML9jcHHHi0M
7n+4MPigMX1fOLi3Kxy8f3c4+Ohjj9se3v+Ibd+DD1m79j5g3X3/Hqtj34Z9nNG1oYvTd9fsnrh7
/W5B3x3D4nIsPrz7+d3x3bKqVAlWG4dzF89xBLhJItlD4qTD1QiN00Z3uAm+Tx29QymNNnbMnzJ6
41VXZXVsR8/t2JDVvEfGPqjTDnJ1c4fcOLW3CFGKlatWroyeBB18fYdUv6itQ4rUraQbdrphx9nC
Xt+h07IeqYuSDk/9og4Plk44yMokoit7GxMfxAguONln0nNZhRyNStmSR/xCPCSsE1r4N+g/lI+/
H/97z5qe+T3N/PX0m1OwHe5BiRyA51KT/T54lL2vhk7YD388LhD8GK6HX8Mz8Cp8nqq7EW6F30LH
cf22sdo74W74A+yEvfAY1m2Ga7D2V/C7fv2WwybYCjdjvHqJJP+x8GOchyTO4EOwcofISnI1+DHa
1WG8Xgk/gsvwvA6S8Vg3AusmYe0KWAPXYm0XHDxJ8BoB06EFlsB5sAN7PMLqCrF2GszHWlqXwPmw
Fi6H2+EueADPay2e2TXws5Mc78dcmAvDKngX93ya/JQ7gCO6CzZKHvr/BYmHqFWFFmZbiP8doGd+
/BvMDOZyh7k7uGvgXm4JjAeOBl7268U8vnnulzgB6Cv27BvPMhpcEnaGnXlIBHsd3SDCd/QdNtBU
iCMRJB4/i+7dZvh49GZLkyjrCoEWwWq1ck1ClG8R98Tf2OVwcE1Y+GSXrrPC0V02Gyv8dZemJZoM
VVG4Jl0MipwYa2E+9E539J0WqPm0LFYzuITwEd4dqSjjeP89mX9+5hnx0HdPCVVHYy/hbPwb/hAv
SB52JvmGl5Mk3kJ0xVA4vgjoFC4UWWKflrXEPsXDDS+LDU8cjv7hheil0d/gS/J0P8jV0hfN967r
uZqrQW/gocLI95NCEuUqoJqrhwauCZq5+Wj6J3grx/HTBbQ058dwE2spi4HjcGkMD96ikIibq+l5
79o/kKzu87mt9Jg3cYN5hXsPjxkyPGS0joFLFyfCRHEOzKE/s8fFymItEGv5FA8QrgjzSvc2rp0b
fB/dtxvpE3Y+od3cdCJDMdkT/8BQqT1jpIZwBG32KdoKr1nEWUY++fxz7M3Rb0qIZ+M1sqBfPL7T
UAia+ttdVqvUJCULlj3xw8ZqWjpDqrdwiqLK3CZCiAd3UlR+k0AEjyhK66SVFo4vVw16LVWDXr8S
1VDbVV5VVIkna0WC195KJIvCi1ZMJKthNMxE515Ff+bkPCs2qWJUrBQniE3iAvFi0SLO1xzvtbQ4
jsRaXOnVeGVahtdUV9NrTy3QssnR3bJ///7Em7yfUJ+AlnCED/MREnYTIp790rXd6659issm8rqe
73qOkl/0tImHjq3hXuvOQ5utjL8rjhE/QZ0tN6aLxKZInjQSUDzePG+lt9YzS56hzrDPcswa0Mq3
edq51Xq7x52W5i93cYWF+eWSmgbnF+lFRC8KFsWKaoqWF4khr9VD/dWaSX3VuijqOIInS4cwPOGm
+KKnnidJFkmK5OQW5HMV5a6qytyy0rR0byQ/P5JDW7yetPS0tLLSyqoycUxVc8OIrdPv6Pnn3Nal
i+bOIbY713x+rX7xV1vOv29s/YSm2jEPLNp6dJl9qa8w3R2Y1TaH5D26h+TMbztn6LiPF549bkLj
u9t//vbYM8bOnYtjxrlHHIbXW4O3O/kKmaYUadRHQHbInCyLqoXHy6RwHhs2MRECVSO9plg4zNSI
hfcMLbEXHSduf2Tksr4uqmrQbTapCdzUZWCNTbcZtkk2XuY96FsvJqV+LCnsVxOHEtmhcPujpPQ/
20UPxgr0eLSwmx5SXGqlZk2gu7SlbwO3UL41w13VsfOjCU8PO9HbkcvEYQe6Mw4c4N4/wL3SXSAe
6t7DNaA9iuIfcx+hPbxwvuFZQtYRzlXm5S0WrZxX3G6XB8f2dnL0R9nsBPSEeoedOEWgg8hIjJ+N
nGMjvzBdTyfSgjT04dQp4vWHmu7SGNVhC/GgC+QXVJQlLnVlZYUTZc199PlTJbdVagPX1Mxe5g/o
PU9whFzy+MtOa5c9u7BgwKrx/IJbe6/kETxzKxlnzJqukiHcELFSXc618svFVnU9186vF9tVrUmZ
rs7U+Pn8Kv4CFJ7K8YrEAScwmQoGHYjAxAqCQ6gTpgkIi6bwxCIrqsaLHE3rbHTgnAeyk35gTGCO
YGUGcTBrqMwUfnYoHzODNeEAdt0etE+yo+jZFWYTvyiwK+m2OOgRLUl3sKTcwcLcwZI0sSXpF70F
Nisl3MGy1NbnAZ/iq6X/pjO9OukSdH7A/HtXubBE4Fqasdg5XyAtzTi3UE2ugJYV6DAkQtBlwoSE
xSMHeuau7lnQRezkKrKBuEX+2A384qPdOIU8xo+A3mswBK+BQqKGYbUELeWWestkS5vlfItltUR0
wklB4pXKpTppqnQuaZXWk3ZJsxJB4maSJgnjIZFxahRkiXAWOt/2DvpwctBHE0N0M+19X4RvG/X9
RJiQXj6zv5XZX03YX9M1Q+M41otj1uck2sK5BWZ9IWl9IWV9gXUWktYXktbHwlfM+kLS+sJS9d9a
vxtfzuqk/amRV5zf0kKn6ISJUZRDvuke2UXKuEu7xPKjNGQbwn6MSmhXYTva1YEZyutGyVDPiKxG
T2PWJPs0fYFuySgHi8PCWSyKr1zlFVkPB8Oc0xuCEozl7SD0t9G3hsasY+0V6hfJOe0DNg42daUx
Oy0P6+GaMJdh8Sh2ahYlaRYlZRaFmUVJmkVJmkVJHg4L7zKzKEtDx89RhxPFFppg1HxKvZHFMJwC
aCCIUHuU0jnfUp5fgFEAJy02Iwjb60dOePG2AwfI9ZftbWhqea6yquTisx+/a832WKxA0OfdPXLC
hO4/iYeKS6rv2TRhRW4w0P37aKxkScKG4o29NvzOmCqTLFJMhpLqrHq9wdOQNZNM15s9y8lirlVd
oP2IXKA5ObKT/reSFn85x2YEylKTgWkIJ/rKWWCgpjbCvNOr24iNWjeLWsSWSc1hY15n89Hx22yO
EOqDWZfZOYNXaD3vAdH+nyJAauJPhYIveyf+PqOWdkdLY9EWTAdSZh2esCu6oYv62ibH2m4fZgXh
MAmnzOtFe7uPN7F4Y0+8x97z4QFy+6ZdDZNn3XF1W3F5dPWkDw+efeXg4ig3qbtDPBQpLrv5wttf
qSK/NOblZKV3PxcuLlzWe1NQ+IzlTyuNDCJUSDyPCW5QmajwMItwdETEg2o5YqhMQLMmijTF+sjQ
mBXkXhN8tKt37F+dMPY4S8LEWK8DHY4mkl6MIjQNpCOrCAufdX9yoPsTPJPw0b+J4Q56ZrMxd7+K
xgd4yrhnLL+Qv4jnbUTjBIETRdmqpZMM3idmyBnaQH6gPFAbxlXzpUK5PFwpU4dqjVydUCePV2rV
Rq2JzMQznymeZWlWmtQFZAm3QFgiLlEW0CgjrJTXKSvUddogqwc/1eKRRLQB4VlkURhjUqpwOFR0
AYmTeE4eBuVSI9RJa+ECSYIVGB5q7HPs6+2CtNDm+KwFAyaOj6Z8OF52JbvxL8GZg+DsjH/LCP1r
uarnf/7W82TPc6/2rP4jqSblT5EqUiUeOhoTXv6uCOeSQuHP32ULb6MWFsX/LmQJayAfyshio9mq
CpEM1RsRoi5q2yLGxYyb7ZOzZxcttrdmLS++WF3rac+6uEjl5AEjSpyGk3M6Q/LETJKZ6asJCYNH
ySqR9SyS5SyoYAPl6MSTKrCZlsZKNr9wfsjSQGJzuCuVRTnZBO5jVvL3zkzHkknFW1QXEpvZpUTU
9SqKlEyvrqnQK4IVNRX8IBo46L6DaBcb3WWQTHcZFNBo8K6in6lZ6WdqMu2nsexUs7KyRD9MS6MH
1lhY0FR6eG1jeb+8KjGxv9e3endWO7qZDEtjbEKjiW2Lk01rVHw01KLyIhW9eW5+RTlKLbeqIiE9
zHEjFZWVZQlJ8k6pN+dFQQpZD2Q0DYitnXLDi8sWnEOy7ywuHNA+4ozdbWrVCwtW32vUjH5g+od1
k+evunDenRc6R7jSgwdvXv/z4uKQnGVM86U7CvIe1nMLYoOuXdqThc7gcae3NbW2TUAf6EIf2IZr
QDeEiMsYWM5V6MO8JaE6rl5v9Bqhs1wLXevlizOtdkVKH+0UrCTbkFRN9iQupdREC7upsTwBFkd6
c8EvkpHmsKGxC2jvvXqf7GIXK7k7Fr42BrIrty0nmFOTw9kDCsuIFBabaGyRWBnZb90Tf5PFeysN
82x6tLLO1kQ6zApHDI3uaZXonlZ6KnRnLHy+m36OdXP4+FiMVysViOglZReOTprViWQ0cakKLDRj
plfHxZeza+Vk+amwbWLt2HvOmXN1vbVj38TO5QfeffTS66b8pmHSynG37OCqrnxr/MSJxbgs8nS/
PGpqzws97x18fuyQ7g25mc/S2Whx/H3+a+FCCMN9xng9MjHCRUmOvTAt1zeUVNiHplX4xpGJap19
YtooXzNpsi8mC+xryUq72+Hw1FiFcNhfwyt6hGWtEYOZOBnS30wa+k1jELPvVZF05tXpAYX5uyIz
AzMFKGnM5MxkGK2/ZZZSNuYkLfVptLfUf8HWwlZs1Db5+RUO6LdWSzgtRpGqMv7rs++ec9HTDeMm
keJ/tnZNUKfff9ZtXffdWb06NrDBq44pLh3b0PD6dcRFhlQWHKpt+MsLT7+S7fPGnOibS9E3a3t9
kzPyhvtLMoeEJvpHZzaEZkiLpHaH4iKcU/SNsgtEzh4tqk7Pv5lrbIm5Jsfodc8jRoRNOSzQgIPV
MkeCQmY+tXfS+cwoZnONznw1McNcm/DTADN0wEFbAgHZR4+EC8ceI0qPJrOjyWwNILOeskCPKTNP
lmV6JHlj+Lgksf+SjXlmKa7bel2xBs3NJo5IDuekswabJpxlvLOfwYXafZM7Fh78eHJ93X1tMzY3
7ts3fs3YWzs2b5905wVjziTlxHn1m2eOn5RXQN45Gud+nON//eknnx9Ln9stib8ntArrwIdZ0UGj
IF+I2kqEYbbh2bVCo60xe6ZtUtoSW2v6GtvabDsZHgzqmSO8gkZvpWSwyVGz1Ogo0jCb78PMETOo
lW2s5IdQr1MeNuqYDbeGacpUE+aDhBmHsKScBFzMjC5mNhfzTxczm4u1uzi6s2tjKt9BIyW0S2di
uoZEv4yyfIctJMN99wu8aLkQOKmXury9k63QeuypkZXlW6eveH+wOufAsp6Peg6S6OG3v7mfXLf9
hp1WLrDwpsElJbOKnh1QiUmiF310dM+3Xxdef0fnpajdOgDeJWWjzZ40FvqZZ/lZgih7qj0XiDym
QDVe0OwjZadok4HeVlN0xY4+Z00EGhZimOQ05hUaYSHGrzvBbtgcVfY06qP2ED2yne1jT81u9kH0
k+zUQ1k0tLvocXD7u4Sv20P0WPbLM/r7VGlpaXeiEEMTsRBV1l1KF9406cbY1Kteb9hLM6hIRRkG
KOpnvEsNzs+/aBmZ2rNz3/r1Bx6oWVAonq24z70y/9Zjo/iHb8178k9WmSq2p1moRT+KQAmJGcUj
3CMLS4uGltQpje7xhaOLGktmkRZxZtoSslRckrZObA85c0RX2DvAyBYsyTsrtGAE6KAsFs3gbYNG
eS26RKRwbikzsispcVdS4rRgJDzED5KP6XvyD9C3/0RtlwZLa0q5KHO9KLsq0YDPQY/io9rOo0fy
scnSx66fT6JH8rGetIy8cXD/aNLieOffpAcsO4hGU/LOc0D4+Pse35d71ffl3tPTc7j57inqoIPz
W38UiWQ33bwG1T9m1N7ZbZeMw3jU+GPj5s5Lb5ryq/U97/QcyUjf76oYNLDgvLpz6mpJmFi2HRo/
dmLBgJJjf+bacrJeOLDv0Rr06y503Dk466aRMsPNe9O8F3h5h00e7RbshNjkk86w37JgwyVyAZbV
0VS9d2V+zHCyyyD0uww0n+st9PRmCDnJ/G4Xuyw0RytnIYw5NKiJ9M4X9LX6OMdxGpL7achvS+YI
tt5UkS7B2HIsmSNg4Qg7cRtbcdBPs7FD4PaXLFmgBRYCbZvT+99HYxfvuGmazTxRusqqSaR44Ygz
lc05kylDmleYs8/lyzi7ccJvJuzbN2PfvPse4tZN2JRfOHD8sGMPYXLw7Lgprz5LZ+J7MS24RHyN
3ZP/peEmdRyap4rjJVydrFeIci0zaBGzVavABtb70IDNJAKzguAnHB04aV3P1lVvJm8v9hqk955T
0iBi0iBi4rKwu4rxxOJys5wabss7CQu8E2UrkRp2v5ngLMHTW+eXvPyydd8+0ffY0TyhheY2j6Af
3Yt+pMFRo24A91fymsIrRLcFSRYXtBWTmK1EM7Rp2mJuLaGPBIgf6E+H7uI0lVdlTlRFC8G1tYYr
8XaVU1UWPgYw3wBbyGbYOJln4+DZ+HmBnjjPxs/7+w/67e8N+kj/O6is8L/tfQdYU0nX8L25N40S
QhOkRjrSQpMuoUoRaYKKoIYkQBSSGAIIohQRsKC76trWVSyr62LXtcKKrGvF3l3ruu+uBRsq9vDP
TBJEZd93n//7/3ef73mW++TkTDtz5syZM2fOJOR3lRZQSfXYX6oOlwBBWkCdofO5FuiDxQu8e1Ug
J1QVyKljt7aWvTAlW+HhDMbeJw6wxVVqAI5m5OZXSl5ZczPF+uH71/g9hXIWzeidGcXj/TsgrX1A
ZCXoLmYKz5GC4ww4c/PUq0Xl0yEdVYcPzSpwHNeMEe+ZWBzVxzVDw3v2CxwNDYeuHULqyQ/TigaE
phQeneFcljQ3A1ZUtoBuAuy5C36EF0/YEc6GdobOkZxIh10D6TvtcXtrSwuGSbiTDWlJxdkWDJ4b
bu3GdeO5JbnJ3Kh/zrwbNPEmkGE35CvgpmgYyFrj0HKgscD51kfj4aJKFuohdSIDAZAnPBc0GOQW
4Hy2vbaFHupTD/Wph/rUQ33qmbGRLGA/bNQPSJ9VHTTZDrA2G+0JbGjLIHm2xqgB5C1SB4B08wbA
rtjWZqgbM9SNGerGDHVjZmahmRSLnusAC1TZQqN4FprZsejZvS20IAkL1SFXhfBYsCcLvjWbx65k
E2yPrOefaCD747R+QAD7QxW1YcqCASCgnsHvvcAxNCDrEwMFjpn6n9grY9VWo7JadJNmXWOT9OTE
5YkEqUITvoYGbLNAvsJR3jxh92ZKeUytk4trYohJiNV7X0p53HQnFxdo1Mis8tiUcWnj0m4ewTS7
CtCkfrjzp7sK9f9yVzHptauogr2aLUSpCWfegjP8yRYC43NOSBs/bCZoG1FtKX++mSCt/GgXUa2t
nu3lf7qZ/Ke9xPgv7CVI7GArgT79bXIikLg2ZgIssFkQy4ftYxTUL54VyY40iu/H0AtlksahhJaO
JsKuoxE9QDpVbqSOeX+eWqbvNCf6W6pVhJlqLnk0+/UjzYmzS3O0f8MLUR3t++v1t+4f2l/anzQg
keuGJG6ApGxgTusHSdNQvIeGXC8a8vpp0DnoD6nT2JA0DV2PwDIAp5v+m/sNKMaHoapYMhuztVF5
/pjq5K72niYq7z54qLyHmzx8gJu2fb9oyfrvFy9sorgrHysP4sG4PnhClD8pH185d+7K2SuXYKxE
KSS/ABKF51Ebnr0XJcDYixNBiTUO56Qb5BpMZZRbaGniJFQrHo2prWOkkSlAupAWq+MkamGe1qjz
E/XVoYFaqp0aFf5cql3/NmCi81cDJl2aue6JnKit0V+KnHweOvk3sZMe5f00djJsSPh24YiG2Obm
+H3jj91umzk3eU18UmHsN1sowfW3h8UlOzgpXamvi0LTlKeUHceORAe8r7MzO6+yJ4QcOBoGWDPP
CNNlA48AeAN6wMpEaOlRmQwYR+wJRvGckDAxI56RzIiiQ0cioCN50dFg6UhedDOmRl7Mni1VLVyN
vOA1B08fxU/soLCYWpqYCRIWQF6rgif1hn37DFBGwBx76KMlrj5y9Ta9hFxrYOKgEavA8V3WNMrT
1ZX4QouZEPLuDzLr24x4Kh1aU0n3v4hL5CTMG0/ljaBRmObGlP7mDsyBdl7MYLtw5lC7MdSsfqkD
0j2Ge0mp+f3GcYQeIi+jMmqFvoJT6qRwmYnX6043q3NagC8118ZYps6kFVFpA5QaqqWNjcNg1XmM
h4JD4Bg2mGAOYMH17AKF4Ywk54xk5mzuiyyEKTqzm6LrTlNkAMGBqesHdC5iaRYBC8UD0fnUHBtg
Skf2XL0Segz7c/XdlJF6JfQsgFeaBfCK54gWwBx1rHesb4UvlY6MCB2FbOlmaDprfVBw9kOIFu6R
QEs9eqxET8gAgCx9dOWZhX9yA+3r4wiNMAxy9ZzEeuJcJjDCAAFx6f0v5aeitUZdFZbPdnDId6ry
nT85INB/4wThiUitmJOC3DkuA8f4VLlMGzIED19yMMj2XERiUnq4jY0p05TluEgSVcb18PO0Peob
mzgsyta2n46pllVsHJjrwd33Ke+pyzFzbBsvXIdqRnWhEtps+mBdbS2qublJKMFMtKywpLCw2ZYM
XTbSVjaaIDby+dhomthmWgw6DCrQYUBQH10vo8CCei1o1Jveo950C3QERzRA7lPVhkA3QbfM9RYf
xxVU+u3B7vLKUl3ke3ujqII6QOgLYwnwAwfGA/Q/xGQo732neDZtq6hoxmuU5QzTfgmJ7sJ+Wlos
g93HKSnL8TDl/uVKYqTAxcnenAm1fivY0UaANd8PN+cZadP608voBIVqzKTqh1O1cEbfwb+uPpyI
RzxLVXjgM9+Bora69zWbWhfPu9chlKWKEqj8hj8/gzI0H49g9DiB6oCgRs4MjYVnQNEis8tAJBga
twEgL5AlYdSZfHLn8FGkUCV6ZHiD1V6Dr1ro3h+Ere9Njmgeu0m85WAz28w8PSV2Y3xzeXzSpdOU
C+9r0kpdXJ2GBhHhQMYhwIJWABnTsAZemAPpTBtEBtCiyVgazZkaQOVRk6njqFSaGfxwmBlBIZww
R8If8yPisCFEEV5GYWBUShGBE1QKg4ITGLQhdky2nw5mgY3HyjASa2DoMXCCMCRERBFBEhZw0RLV
dLBEs8BWkqW6GQ/NUp2nslR3XBhck6oLLrJCGdyiDG3HM3CgCW9Xk1nv6ohSwE06hgFWszAdrHMP
xgDCRSdD6Mj03HSjD28959Uhp4ywJFzxgRRnwp50oNoxXLR98CBqJB5PHYGPJEdRR2gXULJJIWM8
U6g1QbsUn0KRkwrGZGahVpm2lQ4cPt2MRqVhTDaTwtRc6mnR0nru84AA9GjWNA8agZkhC+eAFGgO
i80KZUlZBEaDHiXye+BOhVwf9JkS5Oig22LaNPVHOLyQBVPf/n18+Qe2ExfcRXMBaAhEZEgbpLy+
SXlbeWej8urBE7jJ17hVGxQVkfUOimsFwYcvuJ5CgD8D55qOzeaFkejzGEm0cTQZjcYk6NT+hAk1
Go8lRmIj8FKCSaHDUVPNSIKMxaJJCkZQSCpFh5IHDqIUgiDRXNuo5zoOzTYVa2DqMXGCNCSjSBFZ
RFLJagb7N/jBryz4EZQsD0xzclbPdKv6OtNQNdfvFUdPKyPa8RF4Bpn1ho6fJR3fHSSC4fWytfoR
Yg19PLuwC9jTv/LgUvDc0zyUieA5CR/iCzIYPDfIG9QvwXMDPjTh5w89h2HP2MEUaxFaDdpSHXed
+TrzdQfqFrGW6qXqvWO3sdv0wwz8DJoNJYbHjITgafvn+ef55/nn+ef55/nf8mDoM12UGwBOwisx
Gp6EsTG77pMAunUvA9CvezyAgSgnsrsDwFHdlwHMQHgmwPUxve6pALK7x2F2AJ4E0K+7HsBAhI8A
Ne2wkd1dAI5CORndvwKYCXAHVN8NUOgAUB9BO1DTG9NTngdQH0HIjzfoHcIYBFMA9AVtl8EvlXYf
BDAScOKLSn3VpSMBNV/Qy1HMD1C7ASAbjMUP0IS4HeDQD3MArfwAhb0ARnaD0WLR3YB7QAfCuG53
AFMQntYNnGEsvXsogCMRPgrBDAQzAQxEvQSiEQWCsYDxI84DAeVlAMYgmIJgGuA5ENCBMLN7PxYJ
qD0BMAOMPRLkPMGigEx+BRDKJArkvMWiAeUOAOF4YwBUYLHADwsGEMo/FvUbC+rXA5gJ6MQDmh0A
ZiA8E+DDkMSGAU4gngJgEqqThOokoTrJKCcZ5SSjnBTESQriJAWUPgUwE8BUlJ+K8lMRh2lIAmmI
zzQk5zQw9mvYCJBzGUDI1SjQaiiAMGcUaAvxSITHdD8CMAXADFBnL4CQTgaoA3Goe5kgPxxA2DYT
5EM8EuHRoFUmNgTQz0R0MsHcQRxSg3/uFPeeb9V6YZovNwNXH6RUOAXgFWqcALkFapzsVYcKziB1
apzWK5+OBfXgTIyFrVDjuvhQbKMaZ2ED8dfwG9YkAfrSodginApwNsUb4TSUH4FwOspPRDgD4WMR
Dn9bWUiRqnEcY1HOqXEKxiIK1DiBCYlYNU72qkPFTIkpapzWK5+OFffgTMyC2KjGdSmLiaNqnIUN
p/ERrtWLf23IG+0HhOv0ymdBnPYzwtmQN9oFhBsC3IB2B+FGveobozGq8H698vujti8Qbo76UtG0
7FXHuhduB+vTCYS7IVwf4oxePDN60dfpla+j5n89x4vryeUkiAVyaaE0R8GJkMplUjlfIZZK3Dlh
+fmcFHFunqKQkyIqFMmLRUL3dJFcyJfwOeJCDp+jkPOFogK+fAJHmsNR5Il6EcqVS4tkMFsgLZDx
JWJRoXtPYaCGSIootyifL4fpQtAjx9ed681x6qnnnMBXAKolnAi+XCGSj5IWcQr4pZyiQhHoDDCQ
I5UoOPxCjkwkLxArFCIhJ7sUsRGVNjQMlMpRQiaXCosECo5YwinJEwvyerUF72KJIL9ICJoqpByh
uFCWDzrgS4SglRhUEIBaIonCnaPpWyrJL+U4iZ05ooJs2OgDKYmmcp8coepCsSSXIxcVKuRiAZRw
r95B8x5aQYgBJzHoRSEqgNMhF4NehdISSb6U37tTwDNfxalIzgHDlYKuACxSyIoUHKGoWCwQwTp5
onzZJwPKUyhkgR4eJSUl7gUacbuDqfJQlMqkuXK+LK/UA3ZR6AGMpxSTAxPBx/IxCVYKUtlYKa6L
idAXGu+B14fyVEwB3iXgOMsHeUJiKbGVaCH2g9ceYi+xAVuPcYDx4GKe4MXBEjAxJgD1pFgheOWA
thwsAlGTIcgHOWKASTB3UBIG6OeD9xSQl4vlgbJClBKBdxGoXQygENRMRykh4oMPaohRPYgpEE0h
KC9A/E0AebBfWJIHcvvmKBeliwBPmtoC8F4A0rAHMerfvY+WgZ9xAnnNBZTyUe+a8kL1GDlgA3cH
cvEGmFMf9JxBHpSIitcSJCtIR4GojEI8ctDISsF7EZKKamQqCeSgXhRIFjAtQ+0KQKkC0RCCvGzU
ViONKLClDQVyV7WV9yqRIc6EoBcBoihG/JegvgQA9t2vKg3rCoAMitBMCFFdKYBCVC5D0ilFXEpQ
KexLrKYgUNMSIQi14tNxw/J8hDmBVs7gHc52dk9PfXEl+YzyX5fRB+pCRCkX5MmRTigQ34IeHe57
7KreP+crqJcE4EhUY1Gg/jSrA9JXjVUIckrQyKVIw/seqUrO/I9kKkLzKlVD1ahUeBFIyRDkIG6L
0WhEPXRgzXy0Kv7dDOUhycmAtnuApwQ97kiiH2u3u3pVeQC8FI0wF41RBiiUglzNKAqx3hYJ2hxx
T/o2slCijyyW6CObhKwSaUV6kvHkEDIEwABQmw/GBqUGLVkYqCEHo5agVljPP1QBvtukPr6JraqB
vBYM7+5W/VcZ+Ovx6Cfy0H+bIXbCKHMvPwzDtDAfbBCG5/MVEtAW+AxDh8dwsH4piQnod4DQf1f5
CPa08wdGpO92Vr1a4D3vOEbJlwryMRaCRogOrqZGgX6ROsVWvztAPwIjiRnETGIWMRukKNhr7A0o
ssY5KMXAcKIBUVGoqanpmeRgmOZHPU3GcKtNMmjMgbUxtS91cTqlsdokHmQNoeC4pzaXSaO6sAiK
GRXj8mlaLjScxKv9KDjZmMpN5rr2yrFYZVVpAdx++CSCdQa1Bc4p1K/B8OEO6EWMNDpybu84N236
EuXyplu/3l3DK1/o/rix2sCTW02O41YTQxsJ+H0nLfcm/WtJ3ZnfHG/VtLYErMg8XbjONCKN1Da0
iZDKSuXQ9eE4CZw5ngEBfp84Se6eVlwLVWXjPt0nzwFca1hOGJp+KE+RShWcsCJFnlQuVpRyrUx0
uX5cfy/w5+3J9cow0fX0AklfkAn+MrilSFaACM2QkpbqacjVhwmGodYIfmEecCYUoBs2lwUz6Yb0
FJGwQCoRahjT+jPGbLkDVIyZ9S4Xijip4lwJdFGSIsK41bgNV7dnAnGcihHVuB4G8rUo1TiO7Sqd
cjFre1TAdz4bPK++tveNLWl9a738cNTEx2ei756f/dOEoSnZz5dQfkq4HJvvYTdYtP+k7S7tmF0V
RdejWr6fy0r62d6ls/EPXVvrM2F2b7KXnOof9e38OOslJ7Z72PwU51YuvWJsFTQ7gB1wvcX5eU6Q
G+7VrXSMWftDPl637O3ebYKK6teZjVU10+ds6dy9YPUp/7VJ000c64Zd53ZhIc8PvQ6p+rH2YX7A
Onefrh3um7WmZH85KWfZ4kLd2s2dB59x9iQaNAiOu17xiur/aF/cwqCkVNOTOcml32+sO5I+eEV1
Ur2EutX3wGS7lpSckCXD2l2mektqhtDOLD8dV0uR1GJrWutuplIIoPirq95wq15yDYE4Le1JHa4W
jQFUl0qlEwS3ahXMxcmqpdyqRZXs0adlj8Xy5bbJU422JczpPr5S/t/Xt2o97AA2Kzi4Xv/M4C5B
x00eVw/yaIjj3SSVS4A3riXMYJH9SKN2y5PFmGz05qdXDw5bmhzpvjpS8ISrDYv1SBIso9peS4eA
GjG5adPUOIfOk83DFKtGOioGFm2vfd80dMEkLOHesQem18Q/s1aVP6NEHDpW1/4qtb1tRUu69Ikg
cn0k9mjhkaUXLHZrr+ivu+DSVauNzlMeP1xbuGHujYA5IYvHN/sXnK3fbPv+5r2LYuaX9S3K29g+
n2cvy1+zDdypD5wXzg+f4DRxl//cW3Tdo1l5J1oqwybkfLdv1745Psc6CXZ52Yuzt8JvTlbevr1B
2XXzgu522cV5dxJ3+q8qdzsf8ouPdrYfZUXVeNsZXZmCuVsy9gVcGjc7rcbM+0XQ4sZqnVVjZ213
3bXy2+NNVzk793P7T+cY6Q5sTnkedmsM9848J3HdAdmvz9Y1nawMlxezgI0pAzYmW21j+PipwcgW
6vVeR1RgZ/7GVQ0NTgCwMX5eXj5crwBocDy53j1JbtW0/y+86SLFAapLJiQmpWiqE39S/T/anhbu
jLdR8u9SJyyfkYjZtv543jJk6yie/7PCL6sdfl9ogKVesahmBZ+03NfyMrxh0fl3/ma/7Xl9p+Mc
n9jfeO5iUUJm9PqHY56c/VU82qzw/naLBvKEc2SjcJSH1eIsyeEm04Bq0cF1zU1F9f3v1y0ycthe
4VC85rx/QM2d7Q4XTF+73Dt7tF/G8AGdixrqap2Vz2Ndf5/1igydcuLEwnm1uhOJX08rdcJ9uy/t
Dr0+J0prStel+I2jnxTLLUtsp8zwPWiRtS2JiB9SQF+XVr+YVrm2auPwYZerLr7ZH97q+WOa7pIL
qbEG3Af/+ra+fMzBsgyjOsYOP3HjAy+72YwHr88b7b317sT9NcZq2/OKW/Wib9vzYRX7T6IWHjH3
+nrsvNq0zTP2HlqyVTEHTZ+lHlz1YCHTK5HdsLQlTbn9Kvte9pGwgjUZwg3iBjT6NfrWeqvPjwJ5
/ifnR9kEMcz1UJ+6Cz0iUoHiuYMsboyGQxwng7mBXH9Nmkupdf3TAykiKJL3oqT4ZEEh6+NETGsy
1H2q1JeGF1+OaNp9KPyNnchnU9GWidw5C3dOeyP/TXnC749A2eJkDmvvxB1Hn1/4beZdJ1nhhYe3
2yY/epruk1FZ/YB9SU7cNxjWcV139uTIRB1+0XvJMvr1ky4ZproBW8a9v9pNfk9ZffnNnNX7Wg6M
Hx7kOfY3V8nxpwkDLTqtiifXbj5Ud3HrwIcb2lmtv62ouHvqbo18eLWpZOCR5V/tMLM6IJ3/S/ba
A/ETNh59GDLvzjaPprKSgNzx2OTqbwj2DcFXsQ7hN76yOVCnfdpo9dhrhV7yQVbdR5x/tktJzIk5
amm5/meHAHHSsHUdbbR8d7n50wFXC+xiKquMeeUr2hX+cYnA+nwDrM90lfVhj9dektiK2Tfp/xJl
PbIsd9WnNujv8XUGAeMziOvJ9fHxg6YnACT/Bl9nuLhAVKjgF8j+qq9zzU/ydvOR8LiJpkdOxgxO
bX3TZLTX1WufQWLKkWkPB3tfifWc57TzS+Et66SavW3xZyqorx4X/Tjr8HcXNollOZMcc+7u3PV4
+p4Tj75/b7BGe5SNs8cp3pV00rz4hwJhQdzwX64/vbF/xbTDlTcrhlL8FrxoXc5It8obcuJKa3Gm
x5Sd9uSO9NHjLQTdleXBjy6Q9gkBJQp6Vlvm5Vo/16KjrPtWAczyYuU3+ZKyWx2D5y5aPpE1dmCi
afY4r+Vnpw1zscnMi5p1w6OGnbTt9Q9mDfmP7L82fHWcfWk663l1ceGgQ1+VrWofR+ugbqn13vVq
weiasJqR0xdItli7xrRLl0XcGn+3wmHOBJW9qcadgETs+rI4jP8d3g6bxlSfLIxx6MJgvQyl9O6w
0EV7fJria+c2L7u/ISgs4tBpbv+eBkYUUsdKC5wli8ApJAIL+9gT+syN6sNALUjQ92wrT9qnP2cl
n46zZsuiGh4XDm8JZVLduncnp063eBjw5a7V6do3Zu8MMj/zdsO6o7u2Jg8wlzLEUycQq2yiH+bv
KCi32R19ruZZg96P9JmDDjyYek+WFbVi3tn2k9fntN7eP/BEecfRTV4X6vYcFxwcdMZ0wP7iG0FL
t5sXLh9Qf3nHDoPhs58vaxPFLXVyWDZupl7QYUPRpJh9pzZOC0zckj3yBvfevQDLOzM6rwZUvTYc
MFtYKaCRCzuXUiI8JkfX7+2mXBG9jrtxlVDM306V6LR/c82JXx7z1GSZ/gB/ikXdBtrPC712/4t3
KDWkZf2MG3dz/Bqe2yxc1r6lZHhy4EV55DbbLmCgvgcGap7GPaKu4iL3iPH3uUefGQJoo/yBN+QL
TJOnpy+0Ud6qpCdMcqu2/zfcI0euvSppJYkQy2BENzI1ihOVOizQ3zfS282b6xvh5hseEe1pz7VV
jcni4zG5pcJBcVJFchgB/o/m7Qnptm1hq1lVrv1Wh+zthvEnuXtbDfzfVYl86AcHbbPL66KTrfRF
z3c9nWyV7Rp9JX5Nss+uc/kPM4J2TFs5JESf4e47Ier3tuDZlBzKelPxg7iHjq6PgktGrzkvWxI/
ooZ9erPbqxmWv9933vHHqeW07HXy4W1Bh06F7r69ZSQ7/1/fXvqprciv5fn021V3nS6bP+3c9LR6
9cVLxKoVxjVvQ9403d7pdaSRInz2e7eZw0RG6kxjSuc0x+LY6onrHm/0mnToUn6/RBvRouyEaI9u
283TO9bKWojjVy97UX92+YK3c/kF19r8XccNvaY0HJq6ycTD613OPsstUWmvNr5xy52W6zy/5mzG
Stve7tQHg3B3UdfLx7Of/i6+Mypv2MvFM8uuf+3+kafUp8X4n3hKikKZgP//xFPSUFL0baw/8v9o
rX1ZK93QkrFfBv/4re+aX6jUGuv0zsdL1h5mNHhsPxE68UJteYn19Qcm21rK77xe0qkVFbPRaJ/Y
tXNwbvbwzkcVjvrzAjpOXqkbVv9y3BDbyY7GPMaK/bqeZPVl3506y7Bzs76fxP/5h/qwbwYPujZy
jePXgVdbaFlGa7fpDT0wJ3hWZ/aSVzkPLzyzcNri9csxT2bzW5u86KFvzhXa/OE8xwZ7m76ftqmq
0Xivz2unOdZx2dSVM15UDbmn+yXj0siguVYTmOL1rTHladWhYzH/iGW09tDLHvsTC5kh7/eOeX64
w69NyG9MOB8iax+9xbDqwPnVnmYtwosLz5aFDhwdncoMPkG8Dh2Ftc9I5XtWk18Di7WIguPcqrq/
8cj20UHyQ6irseoQ3J3U08YkPHV6x9FAvx9S2p4sbu9SY2A1ehqSnkDVKewLNs+ThIKZB0jOjthT
p46yrNjcnF5NdDxHctMbXSsH/vUrm5UOlXZ/4ZKJ84llIqtxbC31JSFZm+flergmcG3wq3sHeGkZ
Nx/Ydx5krL28ZuvB2A7qcdsyY/NzVHLJsQrjJayv6ndmTDWZv67o0M2nA47hNnuCfxu0/YfNwrV7
H3vHcKca3n1R8020N7fdd+7AMXe0OiccSTv6nbj9/OMz3zaUpewfpEwxvF2xL6o8b821Sov9WMX+
wZu5IRuaUr5oWGGd+0yWdWA2dlrETvjtm+sxTUa7rFelr190+qfzmxbO2Hw4eRmWmpKtHP2jmT1v
08vFoynf+o612rrRq54nniAI877OCpppxHgRmL1nrnJ5zZslT0tWLnjxU/nhoW32y4+U0J9uur1+
61jBDP6xKWEty35Za3Dxfu3u4jvZK6sp1txqivmHWaJ5VlN0QBbjv66On26RH23cdLU6NmZxTXvr
ovaHwC8O+uwpoXrqgR2Vy/WH26uXt69PxmeqOE+Utgkj8czfTTPd077N6hoRYGbyiX2CKmITOH6m
7cSJD3+IfKwY424g6ti4aawQW8T58XLT7Gu/etTMHrf0asrZ+txBrgmP1r01oJwUL76nJxhb/1Pa
pqEvtB2/sDcYkxd1YcX850OveNxb88OVgkXP8OnU0KdvO8+M+aLjxIo100Wn265ZS4hQvy0n+42s
LJENEJTaPDtcN/RJ59gX7vuijiy58oWM95aYemd9x6Owg6+npQqmOq4UxylPd+XPur7BcV/tauPi
wt0LolfNKp3ioPQ9GWOwNPKXcf02ZvgNueVAT97THjFhff+9NzuOOeQX8hd8aZwTOXlK4Rk/W37Y
qtUPb+w4/VL/VcHOxuSlwd2mSaFe36V3HLUZv/jcviEXYmt0lKsx7P8A303WeQ0KZW5kc3RyZWFt
DQplbmRvYmoNCjEyOCAwIG9iag0KWyAyNzhdIA0KZW5kb2JqDQoxMjkgMCBvYmoNCjw8L1R5cGUv
WFJlZi9TaXplIDEyOS9XWyAxIDQgMl0gL1Jvb3QgMSAwIFIvSW5mbyAyMCAwIFIvSURbPDY0RDIw
RTk1QjU5OTNENDBCQjg3MDIxM0MzRTUwREZGPjw2NEQyMEU5NUI1OTkzRDQwQkI4NzAyMTNDM0U1
MERGRj5dIC9GaWx0ZXIvRmxhdGVEZWNvZGUvTGVuZ3RoIDMwMj4+DQpzdHJlYW0NCnicNdNJMkNh
EMDx7yVCDIm8zC8hRGIIYp5inol5nglbhRu4gRM4A4pSzmFlT5WVjSorGxXv9Z9e9K960d2bbqXM
yOc1M+tKWVzCk6A9C56coLsErx0eBd+t4D8RAsfwIQSdcAffQuhTCF8LxpUQSQtRt1I2c3tMHcAh
HME+uMEFNvjry1lTvv4rDRxghwJwQiEUQSkUQwmUQRx0KAcPBMEHXgiAH6IQhhBEwIBqqIQKqIIY
1MAg1EMSElAHtdAMKWiAJmiEdmiBNLRBK/RAJ3RAN3TBAPRBL/RDBoZgGEZgFMZgHCZgEqZgGnZh
GWZhBuYgCwswD0uwCDuwCiuwDmuwCRuwDVuwZ95Z/EeONpESTh+EM77jPCNcZIX7G3gXXh3Cm2Gh
JV+U+gXxIDX2DQplbmRzdHJlYW0NCmVuZG9iag0KeHJlZg0KMCAxMzANCjAwMDAwMDAwMjEgNjU1
MzUgZg0KMDAwMDAwMDAxNyAwMDAwMCBuDQowMDAwMDAwMTI1IDAwMDAwIG4NCjAwMDAwMDAxODEg
MDAwMDAgbg0KMDAwMDAwMDQ2MyAwMDAwMCBuDQowMDAwMDA0MTkxIDAwMDAwIG4NCjAwMDAwMDQz
NjUgMDAwMDAgbg0KMDAwMDAwNDYxMSAwMDAwMCBuDQowMDAwMDA0Nzg3IDAwMDAwIG4NCjAwMDAw
MDUwMzcgMDAwMDAgbg0KMDAwMDAwNTIxNyAwMDAwMCBuDQowMDAwMDA1NDcyIDAwMDAwIG4NCjAw
MDAwMDU2MTAgMDAwMDAgbg0KMDAwMDAwNTY0MCAwMDAwMCBuDQowMDAwMDA1ODA2IDAwMDAwIG4N
CjAwMDAwMDU4ODAgMDAwMDAgbg0KMDAwMDAwNjEyNyAwMDAwMCBuDQowMDAwMDA2Mjk4IDAwMDAw
IG4NCjAwMDAwMDY1NDAgMDAwMDAgbg0KMDAwMDAwNjcwMSAwMDAwMCBuDQowMDAwMDA2OTI2IDAw
MDAwIG4NCjAwMDAwMDAwMjIgNjU1MzUgZg0KMDAwMDAwMDAyMyA2NTUzNSBmDQowMDAwMDAwMDI0
IDY1NTM1IGYNCjAwMDAwMDAwMjUgNjU1MzUgZg0KMDAwMDAwMDAyNiA2NTUzNSBmDQowMDAwMDAw
MDI3IDY1NTM1IGYNCjAwMDAwMDAwMjggNjU1MzUgZg0KMDAwMDAwMDAyOSA2NTUzNSBmDQowMDAw
MDAwMDMwIDY1NTM1IGYNCjAwMDAwMDAwMzEgNjU1MzUgZg0KMDAwMDAwMDAzMiA2NTUzNSBmDQow
MDAwMDAwMDMzIDY1NTM1IGYNCjAwMDAwMDAwMzQgNjU1MzUgZg0KMDAwMDAwMDAzNSA2NTUzNSBm
DQowMDAwMDAwMDM2IDY1NTM1IGYNCjAwMDAwMDAwMzcgNjU1MzUgZg0KMDAwMDAwMDAzOCA2NTUz
NSBmDQowMDAwMDAwMDM5IDY1NTM1IGYNCjAwMDAwMDAwNDAgNjU1MzUgZg0KMDAwMDAwMDA0MSA2
NTUzNSBmDQowMDAwMDAwMDQyIDY1NTM1IGYNCjAwMDAwMDAwNDMgNjU1MzUgZg0KMDAwMDAwMDA0
NCA2NTUzNSBmDQowMDAwMDAwMDQ1IDY1NTM1IGYNCjAwMDAwMDAwNDYgNjU1MzUgZg0KMDAwMDAw
MDA0NyA2NTUzNSBmDQowMDAwMDAwMDQ4IDY1NTM1IGYNCjAwMDAwMDAwNDkgNjU1MzUgZg0KMDAw
MDAwMDA1MCA2NTUzNSBmDQowMDAwMDAwMDUxIDY1NTM1IGYNCjAwMDAwMDAwNTIgNjU1MzUgZg0K
MDAwMDAwMDA1MyA2NTUzNSBmDQowMDAwMDAwMDU0IDY1NTM1IGYNCjAwMDAwMDAwNTUgNjU1MzUg
Zg0KMDAwMDAwMDA1NiA2NTUzNSBmDQowMDAwMDAwMDU3IDY1NTM1IGYNCjAwMDAwMDAwNTggNjU1
MzUgZg0KMDAwMDAwMDA1OSA2NTUzNSBmDQowMDAwMDAwMDYwIDY1NTM1IGYNCjAwMDAwMDAwNjEg
NjU1MzUgZg0KMDAwMDAwMDA2MiA2NTUzNSBmDQowMDAwMDAwMDYzIDY1NTM1IGYNCjAwMDAwMDAw
NjQgNjU1MzUgZg0KMDAwMDAwMDA2NSA2NTUzNSBmDQowMDAwMDAwMDY2IDY1NTM1IGYNCjAwMDAw
MDAwNjcgNjU1MzUgZg0KMDAwMDAwMDA2OCA2NTUzNSBmDQowMDAwMDAwMDY5IDY1NTM1IGYNCjAw
MDAwMDAwNzAgNjU1MzUgZg0KMDAwMDAwMDA3MSA2NTUzNSBmDQowMDAwMDAwMDcyIDY1NTM1IGYN
CjAwMDAwMDAwNzMgNjU1MzUgZg0KMDAwMDAwMDA3NCA2NTUzNSBmDQowMDAwMDAwMDc1IDY1NTM1
IGYNCjAwMDAwMDAwNzYgNjU1MzUgZg0KMDAwMDAwMDA3NyA2NTUzNSBmDQowMDAwMDAwMDc4IDY1
NTM1IGYNCjAwMDAwMDAwNzkgNjU1MzUgZg0KMDAwMDAwMDA4MCA2NTUzNSBmDQowMDAwMDAwMDgx
IDY1NTM1IGYNCjAwMDAwMDAwODIgNjU1MzUgZg0KMDAwMDAwMDA4MyA2NTUzNSBmDQowMDAwMDAw
MDg0IDY1NTM1IGYNCjAwMDAwMDAwODUgNjU1MzUgZg0KMDAwMDAwMDA4NiA2NTUzNSBmDQowMDAw
MDAwMDg3IDY1NTM1IGYNCjAwMDAwMDAwODggNjU1MzUgZg0KMDAwMDAwMDA4OSA2NTUzNSBmDQow
MDAwMDAwMDkwIDY1NTM1IGYNCjAwMDAwMDAwOTEgNjU1MzUgZg0KMDAwMDAwMDA5MiA2NTUzNSBm
DQowMDAwMDAwMDkzIDY1NTM1IGYNCjAwMDAwMDAwOTQgNjU1MzUgZg0KMDAwMDAwMDA5NSA2NTUz
NSBmDQowMDAwMDAwMDk2IDY1NTM1IGYNCjAwMDAwMDAwOTcgNjU1MzUgZg0KMDAwMDAwMDA5OCA2
NTUzNSBmDQowMDAwMDAwMDk5IDY1NTM1IGYNCjAwMDAwMDAxMDAgNjU1MzUgZg0KMDAwMDAwMDEw
MSA2NTUzNSBmDQowMDAwMDAwMTAyIDY1NTM1IGYNCjAwMDAwMDAxMDMgNjU1MzUgZg0KMDAwMDAw
MDEwNCA2NTUzNSBmDQowMDAwMDAwMTA1IDY1NTM1IGYNCjAwMDAwMDAxMDYgNjU1MzUgZg0KMDAw
MDAwMDEwNyA2NTUzNSBmDQowMDAwMDAwMTA4IDY1NTM1IGYNCjAwMDAwMDAxMDkgNjU1MzUgZg0K
MDAwMDAwMDExMCA2NTUzNSBmDQowMDAwMDAwMTExIDY1NTM1IGYNCjAwMDAwMDAxMTIgNjU1MzUg
Zg0KMDAwMDAwMDExMyA2NTUzNSBmDQowMDAwMDAwMTE0IDY1NTM1IGYNCjAwMDAwMDAxMTUgNjU1
MzUgZg0KMDAwMDAwMDExNiA2NTUzNSBmDQowMDAwMDAwMTE3IDY1NTM1IGYNCjAwMDAwMDAwMDAg
NjU1MzUgZg0KMDAwMDAwODcwMSAwMDAwMCBuDQowMDAwMDA5MDAxIDAwMDAwIG4NCjAwMDAwMjcz
MTMgMDAwMDAgbg0KMDAwMDAyNzY1MSAwMDAwMCBuDQowMDAwMDI3OTYxIDAwMDAwIG4NCjAwMDAw
MjgyMzMgMDAwMDAgbg0KMDAwMDA0NTIyOCAwMDAwMCBuDQowMDAwMDQ1Mjg0IDAwMDAwIG4NCjAw
MDAwNTczNDkgMDAwMDAgbg0KMDAwMDA1NzYyNSAwMDAwMCBuDQowMDAwMDc0OTY1IDAwMDAwIG4N
CjAwMDAwNzQ5OTMgMDAwMDAgbg0KdHJhaWxlcg0KPDwvU2l6ZSAxMzAvUm9vdCAxIDAgUi9JbmZv
IDIwIDAgUi9JRFs8NjREMjBFOTVCNTk5M0Q0MEJCODcwMjEzQzNFNTBERkY+PDY0RDIwRTk1QjU5
OTNENDBCQjg3MDIxM0MzRTUwREZGPl0gPj4NCnN0YXJ0eHJlZg0KNzU0OTgNCiUlRU9GDQp4cmVm
DQowIDANCnRyYWlsZXINCjw8L1NpemUgMTMwL1Jvb3QgMSAwIFIvSW5mbyAyMCAwIFIvSURbPDY0
RDIwRTk1QjU5OTNENDBCQjg3MDIxM0MzRTUwREZGPjw2NEQyMEU5NUI1OTkzRDQwQkI4NzAyMTND
M0U1MERGRj5dIC9QcmV2IDc1NDk4L1hSZWZTdG0gNzQ5OTM+Pg0Kc3RhcnR4cmVmDQo3ODI1Nw0K
JSVFT0Y="/>
						</Binary>
					</resource>
				</entry>
			</Bundle>
		</resource>
	</entry>
</Bundle>
