<?xml version="1.0" encoding="UTF-8"?>
<!--Discharge Notice accept response-->
<Bundle xmlns="http://hl7.org/fhir" xmlns:xsi="http://www.w3.org/2001/XMLSchema-instance" xsi:schemaLocation="http://hl7.org/fhir ../../Schemas/bundle.xsd">
	<id value="b574fc18-5af6-11e6-8b77-86f30ca893d3"/>
	<meta>
		<profile value="https://fhir.nhs.uk/StructureDefinition/adw-message-bundle-1"/>
	</meta>
	<type value="message"/>
	<entry>
		<fullUrl value="urn:uuid:19db5f65-1bad-4ce1-be05-92ff79ab1c8f"/>
		<resource>
			<MessageHeader>
				<id value="19db5f65-1bad-4ce1-be05-92ff79ab1c8f"/>
				<meta>
					<profile value="https://fhir.nhs.uk/StructureDefinition/adw-discharge-notice-accept-response-message-header-1"/>
				</meta>
				<timestamp value="2017-05-04T15:13:18+00:00"/>
				<event>
					<system value="https://fhir.nhs.uk/adw-message-event-1"/>
					<code value="975821000000109"/>
				</event>
				<response>
					<!-- id of the message header this is the response to -->
					<identifier value="19db5f65-1bad-4ce1-be05-92ff79ab1c8f"/>
					<code value="ok"/>
				</response>
				<source>
					<name value="Local Authority Sending System"/>
					<endpoint value="urn:nhs-uk:addressing:ods:V396BB"/>
				</source>
				<destination>
					<name value="Hospital Receiving System"/>
					<endpoint value="urn:nhs-uk:addressing:ods:RFM8C2"/>
				</destination>
				<author>
					<!-- The local authority social worker -->
					<reference value="urn:uuid:6babc18b-9f20-4fb1-ba0d-d4e3ae2c7cc7"/>
				
				</author>
				<receiver>
					<!-- The hospital liaison -->
					<reference value="urn:uuid:49edc68d-cb09-49c9-8edf-285e931042ce"/>
				</receiver>
				<responsible>
					<reference value="urn:uuid:dafc0a1e-e120-4ba7-b638-0ce50a018146"/>
				</responsible>
				<reason>
					<coding>
						<system value="https://fhir.nhs.uk/adw-assessment-notice-accept-reason-1"/>
						<code value="OFT"/>
						<display value="Other - Free Text"/>
					</coding>
					<text value="Patient from Leeds."/>
				</reason>
				<data>
					<reference value="urn:uuid:076a300f-5234-4309-95eb-9a64714bbb06"/>
				</data>
			</MessageHeader>
		</resource>
	</entry>
	<entry>
		<fullUrl value="urn:uuid:076a300f-5234-4309-95eb-9a64714bbb06"/>
		<resource>
			<ReferralRequest>
				<id value="076a300f-5234-4309-95eb-9a64714bbb06"/>
				<!--This GUID for the id is unique for each type of referral request-->
				<meta>
					<profile value="https://fhir.nhs.uk/StructureDefinition/adw-referral-request-accepted-1"/>	
				</meta>
				<status value="accepted"/>
				<identifier>
					<value value="311fcae7-32a7-4a8e-a15c-eebae3a246b9"/>
					<!--The value of this identifier will be the same across all referrals to tie all these together-->
				</identifier>
				<patient>
					<reference value="urn:uuid:08fc7a07-394a-4948-a7b0-e0a87c77b231"/>
				</patient>
				<!-- Hospital Liaison, a hospital Discharge Co-ordinator -->
				<requester>
					<reference value="urn:uuid:49edc68d-cb09-49c9-8edf-285e931042ce">
					</reference>
				</requester>
				<!-- Local Authority Social Services' Team -->
				<recipient>
					<reference value="urn:uuid:41e0fd49-d1e5-422a-b9ba-643e00a541a4"/>
				</recipient>
				<encounter>
					<reference value="urn:uuid:2a1def1b-497a-4621-9397-87754a63e4e5"/>
				</encounter>
			</ReferralRequest>
		</resource>
	</entry>
	<entry>
		<fullUrl value="urn:uuid:08fc7a07-394a-4948-a7b0-e0a87c77b231"/>
		<resource>
			<Patient>
				<id value="08fc7a07-394a-4948-a7b0-e0a87c77b231"/>
				<!--Identifies the profile being used-->
				<meta>
					<profile value="https://fhir.hl7.org.uk/StructureDefinition/CareConnect-Patient-1"/>
				</meta>
				<!--Primary patient identifier-->
				<identifier>
					<extension url="https://fhir.hl7.org.uk/StructureDefinition/Extension-CareConnect-NHSNumberVerificationStatus-1">
						<valueCodeableConcept>
							<coding>
								<system value="https://fhir.hl7.org.uk/CareConnect-NHSNumberVerificationStatus-1"/>
								<code value="01"/>
								<display value="Number present and verified"/>
							</coding>
						</valueCodeableConcept>
					</extension>
					<system value="https://fhir.nhs.uk/Id/nhs-number"/>
					<value value="9413946000"/>
				</identifier>
				<identifier>
					<system value="https://fhir.nhs.uk/Id/local-patient-identifier"/>
					<value value="A1234521"/>
					<assigner>
						<!-- This can be a reference to the profile elsewhere in the message or just text -->
						<reference value="urn:uuid:148eaefb-6dd0-4848-b13d-317bee9f308f"/>
					</assigner>
				</identifier>
				<name>
					<use value="usual"/>
					<family value="Jones"/>
					<given value="Barry"/>
				</name>
				<gender value="male"/>
				<birthDate value="1941-11-01"/>
			</Patient>
		</resource>
	</entry>
	<entry>
		<fullUrl value="urn:uuid:49edc68d-cb09-49c9-8edf-285e931042ce"/>
		<resource>
			<Practitioner>
				<id value="49edc68d-cb09-49c9-8edf-285e931042ce"/>
				<meta>
					<!--Identifies the profile being used-->
					<profile value="https://fhir.hl7.org.uk/StructureDefinition/CareConnect-Practitioner-1"/>
				</meta>
				<name>
					<family value="Gulliver"/>
					<given value="Leticia"/>
				</name>
				<telecom>
					<system value="email"/>
					<value value="leticia.gulliver@nhs.net"/>
				</telecom>
				<telecom>
					<system value="phone"/>
					<value value="0191223344"/>
				</telecom>
				<practitionerRole>
					<managingOrganization>
						<reference value="urn:uuid:148eaefb-6dd0-4848-b13d-317bee9f308f"/>
					</managingOrganization>
					<!-- Indicates the practitioner's role(s) i.e. Discharge co-ordinator-->
					<specialty>
						<coding>
							<system value="https://fhir.nhs.uk/job-role-name-1"/>
							<code value="NR2060"/>
							<display value="Discharge coordinator"/>
						</coding>
						<text value="Hospital Liaison"/>
					</specialty>
				</practitionerRole>
			</Practitioner>
		</resource>
	</entry>
	<entry>
		<fullUrl value="urn:uuid:6babc18b-9f20-4fb1-ba0d-d4e3ae2c7cc7"/>
		<resource>
			<Practitioner>
				<id value="6babc18b-9f20-4fb1-ba0d-d4e3ae2c7cc7"/>
				<meta>
					<!--Identifies the profile being used-->
					<profile value="https://fhir.hl7.org.uk/StructureDefinition/CareConnect-Practitioner-1"/>
				</meta>
				<name>
					<family value="Jones"/>
					<given value="Lee"/>
				</name>
				<telecom>
					<system value="email"/>
					<value value="lee.jones@nhs.net"/>
				</telecom>
				<telecom>
					<system value="phone"/>
					<value value="0191223888"/>
				</telecom>
				<practitionerRole>
					<managingOrganization>
						<reference value="urn:uuid:41e0fd49-d1e5-422a-b9ba-643e00a541a4"/>
					</managingOrganization>
					<specialty>
						<coding>
							<system value="https://fhir.nhs.uk/job-role-name-1"/>
							<code value="NR1340"/>
							<display value="Approved Social Worker"/>
						</coding>
						<text value="Local Authority Contact"/>
					</specialty>
				</practitionerRole>
			</Practitioner>
		</resource>
	</entry>
	<entry>
		<fullUrl value="urn:uuid:148eaefb-6dd0-4848-b13d-317bee9f308f"/>
		<resource>
			<Organization>
				<id value="148eaefb-6dd0-4848-b13d-317bee9f308f"/>
				<meta>
					<!--Identifies the profile being used-->
					<profile value="https://fhir.hl7.org.uk/StructureDefinition/CareConnect-Organization-1"/>
				</meta>
				<!--Organisation identifier -->
				<identifier>
					<system value="https://fhir.nhs.uk/Id/ods-organization-code"/>
					<value value="RFM8C2"/>
				</identifier>
				<!-- Type of organisation. -->
				<type>
					<coding>
						<system value="http://hl7.org/fhir/organization-type"/>
						<code value="prov"/>
						<display value="Healthcare Provider"/>
					</coding>
					<text value="Hospital"/>
				</type>
				<name value="Hebburn Hospital"/>
			</Organization>
		</resource>
	</entry>
	<entry>
		<fullUrl value="urn:uuid:dafc0a1e-e120-4ba7-b638-0ce50a018146"/>
		<resource>
			<Organization>
				<id value="dafc0a1e-e120-4ba7-b638-0ce50a018146"/>
				<meta>
					<!--Identifies the profile being used-->
					<profile value="https://fhir.hl7.org.uk/StructureDefinition/CareConnect-Organization-1"/>
				</meta>
				<!--Organisation identifier - this example has a locally defined organisation code.-->
				<identifier>
					<system value="https://fhir.nhs.uk/Id/ods-organization-code"/>
					<value value="V396BB"/>
				</identifier>
				<!-- Type of organisation. -->
				<type>
					<coding>
						<system value="http://hl7.org/fhir/organization-type"/>
						<code value="govt"/>
						<display value="Government"/>
					</coding>
					<text value="Local Authority"/>
				</type>
				<name value="Hebburn Council"/>
			</Organization>
		</resource>
	</entry>
	<entry>
		<fullUrl value="urn:uuid:41e0fd49-d1e5-422a-b9ba-643e00a541a4"/>
		<resource>
			<Organization>
				<id value="41e0fd49-d1e5-422a-b9ba-643e00a541a4"/>
				<meta>
					<!--Identifies the profile being used-->
					<profile value="https://fhir.hl7.org.uk/StructureDefinition/CareConnect-Organization-1"/>
				</meta>
				<!-- Type of organisation. -->
				<type>
					<coding>
						<system value="http://hl7.org/fhir/organization-type"/>
						<code value="team"/>
						<display value="Organizational team"/>
					</coding>
					<text value="Local Authority Social Services' Team"/>
				</type>
				<name value="Hebburn Social Services' Community Team"/>
				<partOf>
					<reference value="urn:uuid:dafc0a1e-e120-4ba7-b638-0ce50a018146"/>
				</partOf>
			</Organization>
		</resource>
	</entry>
	<entry>
		<fullUrl value="urn:uuid:2a1def1b-497a-4621-9397-87754a63e4e5"/>
		<resource>
			<Encounter>
				<id value="2a1def1b-497a-4621-9397-87754a63e4e5"/>
				<meta>
					<profile value="https://fhir.nhs.uk/StructureDefinition/CareConnect-ADW-Encounter-1"/>
				</meta>
				<identifier>
					<system value="https://fhir.nhs.uk/encounter-id"/>
					<value value="2562b8b6-c0db-424a-8c6b-0fa43b0d6c2f"/>
				</identifier>
				<status value="in-progress"/>
				<class value="inpatient"/>
				<patient>
					<reference value="urn:uuid:08fc7a07-394a-4948-a7b0-e0a87c77b231"/>
				</patient>
				<location>
					<location>
						<reference value="urn:uuid:a33f0b53-41a7-4cb6-9dc5-5fac6bee084c"/>
					</location>
				</location>
				<serviceProvider>
					<reference value="urn:uuid:148eaefb-6dd0-4848-b13d-317bee9f308f"/>
				</serviceProvider>
			</Encounter>
		</resource>
	</entry>
	<entry>
		<fullUrl value="urn:uuid:a33f0b53-41a7-4cb6-9dc5-5fac6bee084c"/>
		<resource>
			<Location>
				<id value="a33f0b53-41a7-4cb6-9dc5-5fac6bee084c"/>
				<meta>
					<!--Identifies the profile being used-->
					<profile value="https://fhir.hl7.org.uk/StructureDefinition/CareConnect-Location-1"/>
				</meta>
				<name value="Collier Ward"/>
				<managingOrganization>
					<reference value="urn:uuid:148eaefb-6dd0-4848-b13d-317bee9f308f"/>
				</managingOrganization>
			</Location>
		</resource>
	</entry>
</Bundle>
