<?xml version="1.0" encoding="UTF-8"?>
<!--Discharge Notice accept response-->
<Bundle xmlns="http://hl7.org/fhir" >
	<id value="b574fc18-5af6-11e6-8b77-86f30ca893d3"/>
	<meta>
		<profile value="https://fhir.nhs.uk/StructureDefinition/adw-message-bundle-1"/>
	</meta>
	<type value="message"/>
	<entry>
		<fullUrl value="urn:uuid:19db5f65-1bad-4ce1-be05-92ff79ab1c8f"/>
		<resource>
			<MessageHeader>
				<id value="19db5f65-1bad-4ce1-be05-92ff79ab1c8f"/>
				<meta>
					<profile value="https://fhir.nhs.uk/StructureDefinition/adw-discharge-notice-accept-response-message-header-1"/>
				</meta>
				<timestamp value="2017-05-05T15:13:18+00:00"/>
				<event>
					<system value="http://snomed.info/sct"/>
					<code value="975821000000109"/>
				</event>
				<response>
					<!-- id of the message header this is the response to -->
					<identifier value="19db5f65-1bad-4ce1-be05-92ff79ab1c8f"/>
					<code value="ok"/>
				</response>
				<source>
					<endpoint value="urn:nhs-uk:addressing:ods:V396BB"/>
				</source>
				<destination>
					<endpoint value="urn:nhs-uk:addressing:ods:RFM8C2"/>
				</destination>
				<author>
					<!-- The local authority social worker -->
					<reference value="urn:uuid:6babc18b-9f20-4fb1-ba0d-d4e3ae2c7cc7"/>
				</author>
				<receiver>
					<!-- The hospital liaison -->
					<reference value="urn:uuid:49edc68d-cb09-49c9-8edf-285e931042ce"/>
				</receiver>
				<responsible>
					<reference value="urn:uuid:dafc0a1e-e120-4ba7-b638-0ce50a018146"/>
				</responsible>
				<reason>
					<coding>
						<system value="https://fhir.nhs.uk/adw-notice-accept-reason-1"/>
						<code value="OFT"/>
						<display value="Other - Free Text"/>
					</coding>
					<text value="Assessment in patient's new home required due to his current reduced mobility."/>
				</reason>
				<data>
					<reference value="urn:uuid:076a300f-5234-4309-95eb-9a64714bbb06"/>
				</data>
			</MessageHeader>
		</resource>
	</entry>
	<entry>
		<fullUrl value="urn:uuid:076a300f-5234-4309-95eb-9a64714bbb06"/>
		<resource>
			<ReferralRequest>
				<id value="076a300f-5234-4309-95eb-9a64714bbb06"/>
				<!--This GUID for the id is unique for each type of Referral Request-->
				<meta>
					<profile value="https://fhir.nhs.uk/StructureDefinition/adw-referral-request-accepted-1"/>
				</meta>
				<status value="accepted"/>
				<identifier>
					<value value="311fcae7-32a7-4a8e-a15c-eebae3a246b9"/>
					<!--The value of this identifier will be the same across all referrals to tie all these together-->
				</identifier>
				<patient>
					<reference value="urn:uuid:08fc7a07-394a-4948-a7b0-e0a87c77b231"/>
				</patient>
				<!-- Hospital Liaison, a hospital Discharge Co-ordinator -->
				<requester>
					<reference value="urn:uuid:49edc68d-cb09-49c9-8edf-285e931042ce">
					</reference>
				</requester>
				<!-- Local Authority Social Services' Team -->
				<recipient>
					<reference value="urn:uuid:41e0fd49-d1e5-422a-b9ba-643e00a541a4"/>
				</recipient>
				<encounter>
					<reference value="urn:uuid:2a1def1b-497a-4621-9397-87754a63e4e5"/>
				</encounter>
				<supportingInformation>
					<reference value="urn:uuid:fb372c95-9d76-4db1-939c-c0b0c564f795"/>
				</supportingInformation>
			</ReferralRequest>
		</resource>
	</entry>
	<entry>
		<fullUrl value="urn:uuid:2a1def1b-497a-4621-9397-87754a63e4e5"/>
		<resource>
			<Encounter>
				<id value="2a1def1b-497a-4621-9397-87754a63e4e5"/>
				<meta>
					<profile value="https://fhir.nhs.uk/StructureDefinition/CareConnect-ADW-Encounter-1"/>
				</meta>
				<identifier>
					<system value="https://fhir.nhs.uk/encounter-id"/>
					<value value="2562b8b6-c0db-424a-8c6b-0fa43b0d6c2f"/>
				</identifier>
				<status value="in-progress"/>
				<class value="inpatient"/>
				<priority>
					<coding>
						<system value="https://fhir.nhs.uk/adw-admission-type-1"/>
						<code value="E"/>
						<display value="Emergency"/>
					</coding>
				</priority>
				<patient>
					<reference value="urn:uuid:08fc7a07-394a-4948-a7b0-e0a87c77b231"/>
				</patient>
				<location>
					<location>
						<reference value="urn:uuid:a33f0b53-41a7-4cb6-9dc5-5fac6bee084c"/>
					</location>
				</location>
				<serviceProvider>
					<reference value="urn:uuid:148eaefb-6dd0-4848-b13d-317bee9f308f"/>
				</serviceProvider>
			</Encounter>
		</resource>
	</entry>
	<entry>
		<fullUrl value="urn:uuid:08fc7a07-394a-4948-a7b0-e0a87c77b231"/>
		<resource>
			<Patient>
				<id value="08fc7a07-394a-4948-a7b0-e0a87c77b231"/>
				<!--Identifies the profile being used-->
				<meta>
					<profile value="https://fhir.hl7.org.uk/StructureDefinition/CareConnect-Patient-1"/>
				</meta>
				<!--Primary patient identifier-->
				<identifier>
					<extension url="https://fhir.hl7.org.uk/StructureDefinition/Extension-CareConnect-NHSNumberVerificationStatus-1">
						<valueCodeableConcept>
							<coding>
								<system value="https://fhir.hl7.org.uk/CareConnect-NHSNumberVerificationStatus-1"/>
								<code value="01"/>
								<display value="Number present and verified"/>
							</coding>
						</valueCodeableConcept>
					</extension>
					<system value="https://fhir.nhs.uk/Id/nhs-number"/>
					<value value="9413946000"/>
				</identifier>
				<identifier>
					<system value="https://fhir.nhs.uk/Id/local-patient-identifier"/>
					<value value="A1234521"/>
					<assigner>
						<!-- This can be a reference to the profile elsewhere in the message or just text -->
						<reference value="urn:uuid:148eaefb-6dd0-4848-b13d-317bee9f308f"/>
					</assigner>
				</identifier>
				<name>
					<use value="usual"/>
					<family value="Jones"/>
					<given value="Barry"/>
				</name>
				<gender value="male"/>
				<birthDate value="1941-11-01"/>
			</Patient>
		</resource>
	</entry>
	<entry>
		<fullUrl value="urn:uuid:49edc68d-cb09-49c9-8edf-285e931042ce"/>
		<resource>
			<Practitioner>
				<id value="49edc68d-cb09-49c9-8edf-285e931042ce"/>
				<meta>
					<!--Identifies the profile being used-->
					<profile value="https://fhir.nhs.uk/StructureDefinition/CareConnect-ADW-Practitioner-1"/>
				</meta>
				<name>
					<family value="Gulliver"/>
					<given value="Leticia"/>
				</name>
				<telecom>
					<system value="email"/>
					<value value="leticia.gulliver@nhs.net"/>
				</telecom>
				<telecom>
					<system value="phone"/>
					<value value="01911223344"/>
				</telecom>
				<practitionerRole>
					<managingOrganization>
						<reference value="urn:uuid:148eaefb-6dd0-4848-b13d-317bee9f308f"/>
					</managingOrganization>
					<!-- Indicates the practitioner's role(s) i.e. Discharge co-ordinator-->
					<role>
						<coding>
							<system value="https://fhir.nhs.uk/job-role-name-1"/>
							<code value="NR2060"/>
							<display value="Discharge coordinator"/>
						</coding>
					</role>
				</practitionerRole>
			</Practitioner>
		</resource>
	</entry>
	<entry>
		<fullUrl value="urn:uuid:6babc18b-9f20-4fb1-ba0d-d4e3ae2c7cc7"/>
		<resource>
			<Practitioner>
				<id value="6babc18b-9f20-4fb1-ba0d-d4e3ae2c7cc7"/>
				<meta>
					<!--Identifies the profile being used-->
					<profile value="https://fhir.nhs.uk/StructureDefinition/CareConnect-ADW-Practitioner-1"/>
				</meta>
				<name>
					<family value="Jones"/>
					<given value="Lee"/>
				</name>
				<telecom>
					<system value="email"/>
					<value value="lee.jones@nhs.net"/>
				</telecom>
				<telecom>
					<system value="phone"/>
					<value value="0191223888"/>
				</telecom>
				<practitionerRole>
					<managingOrganization>
						<reference value="urn:uuid:41e0fd49-d1e5-422a-b9ba-643e00a541a4"/>
					</managingOrganization>
					<role>
						<coding>
							<system value="https://fhir.nhs.uk/job-role-name-1"/>
							<code value="NR1340"/>
							<display value="Approved Social Worker"/>
						</coding>
					</role>
				</practitionerRole>
			</Practitioner>
		</resource>
	</entry>
	<entry>
		<fullUrl value="urn:uuid:148eaefb-6dd0-4848-b13d-317bee9f308f"/>
		<resource>
			<Organization>
				<id value="148eaefb-6dd0-4848-b13d-317bee9f308f"/>
				<meta>
					<!--Identifies the profile being used-->
					<profile value="https://fhir.hl7.org.uk/StructureDefinition/CareConnect-Organization-1"/>
				</meta>
				<!--Organisation identifier -->
				<identifier>
					<system value="https://fhir.nhs.uk/Id/ods-site-code"/>
					<value value="RFM8C2"/>
				</identifier>
				<!-- Type of organisation. -->
				<type>
					<coding>
						<system value="http://hl7.org/fhir/organization-type"/>
						<code value="prov"/>
						<display value="Healthcare Provider"/>
					</coding>
				</type>
				<name value="Hebburn Hospital"/>
			</Organization>
		</resource>
	</entry>
	<entry>
		<fullUrl value="urn:uuid:dafc0a1e-e120-4ba7-b638-0ce50a018146"/>
		<resource>
			<Organization>
				<id value="dafc0a1e-e120-4ba7-b638-0ce50a018146"/>
				<meta>
					<!--Identifies the profile being used-->
					<profile value="https://fhir.hl7.org.uk/StructureDefinition/CareConnect-Organization-1"/>
				</meta>
				<!--Organisation identifier - this example has a locally defined organisation code.-->
				<identifier>
					<system value="https://fhir.nhs.uk/Id/ods-organization-code"/>
					<value value="V396BB"/>
				</identifier>
				<!-- Type of organisation. -->
				<type>
					<coding>
						<system value="http://hl7.org/fhir/organization-type"/>
						<code value="govt"/>
						<display value="Government"/>
					</coding>
				</type>
				<name value="Hebburn Council"/>
			</Organization>
		</resource>
	</entry>
	<entry>
		<fullUrl value="urn:uuid:41e0fd49-d1e5-422a-b9ba-643e00a541a4"/>
		<resource>
			<Organization>
				<id value="41e0fd49-d1e5-422a-b9ba-643e00a541a4"/>
				<meta>
					<!--Identifies the profile being used-->
					<profile value="https://fhir.hl7.org.uk/StructureDefinition/CareConnect-Organization-1"/>
				</meta>
				<!-- Type of organisation. -->
				<type>
					<coding>
						<system value="http://hl7.org/fhir/organization-type"/>
						<code value="team"/>
						<display value="Organizational team"/>
					</coding>
				</type>
				<name value="Hebburn Social Services' Community Team"/>
				<partOf>
					<reference value="urn:uuid:dafc0a1e-e120-4ba7-b638-0ce50a018146"/>
				</partOf>
			</Organization>
		</resource>
	</entry>
	<entry>
		<fullUrl value="urn:uuid:a33f0b53-41a7-4cb6-9dc5-5fac6bee084c"/>
		<resource>
			<Location>
				<id value="a33f0b53-41a7-4cb6-9dc5-5fac6bee084c"/>
				<meta>
					<!--Identifies the profile being used-->
					<profile value="https://fhir.hl7.org.uk/StructureDefinition/CareConnect-Location-1"/>
				</meta>
				<name value="Collier Ward"/>
				<managingOrganization>
					<reference value="urn:uuid:148eaefb-6dd0-4848-b13d-317bee9f308f"/>
				</managingOrganization>
			</Location>
		</resource>
	</entry>
	<entry>
		<fullUrl value="urn:uuid:fb372c95-9d76-4db1-939c-c0b0c564f795"/>
		<resource>
			<Bundle>
				<id value="fb372c95-9d76-4db1-939c-c0b0c564f795"/>
				<meta>
					<profile value="https://fhir.nhs.uk/StructureDefinition/cofe-document-bundle-1"/>
				</meta>
				<type value="document"/>
				<entry>
					<fullUrl value="urn:uuid:01392d7c-4c29-4608-9f87-10829ad4af34"/>
					<resource>
						<DocumentReference>
							<id value="01392d7c-4c29-4608-9f87-10829ad4af34"/>
							<meta>
								<profile value="https://fhir.nhs.uk/StructureDefinition/cofe-documentreference-1"/>
							</meta>
							<!-- Information Recipient 1 -->
							<extension url="https://fhir.nhs.uk/StructureDefinition/extension-cofe-information-recipient-1">
								<!--Discharge Co-ordinator recipient-->
								<valueReference>
									<reference value="urn:uuid:16cf239a-a654-436c-a14d-72ef1fe6ea2c"/>
								</valueReference>
							</extension>
							<!--Care setting from which the document originated.-->
							<extension url="https://fhir.nhs.uk/StructureDefinition/extension-cofe-care-setting-type-1">
								<valueCodeableConcept>
									<coding>
										<system value="http://snomed.info/sct"/>
										<code value="408458006"/>
										<display value="Specialist multidisciplinary team (qualifier value)"/>
									</coding>
								</valueCodeableConcept>
							</extension>
							<!--Patient subject of the document-->
							<subject>
								<reference value="urn:uuid:a94a119f-c6ce-4566-882c-4dd21bc600ef"/>
							</subject>
							<!--Document type-->
							<type>
								<coding>
									<system value="http://snomed.info/sct"/>
									<code value="823751000000102"/>
									<display value="Letter (record artifact)"/>
								</coding>
							</type>
							<!--Social Worker author-->
							<author>
								<reference value="urn:uuid:49823cfd-bb1d-4a71-9d87-3a6817e02818"/>
							</author>
							<!--Local authority custodian-->
							<custodian>
								<reference value="urn:uuid:7b8732d6-7e31-4212-9bb4-b140323c2711"/>
							</custodian>
							<indexed value="2017-05-17T10:00:00+00:00"/>
							<status value="current"/>
							<docStatus>
								<coding>
									<system value="http://hl7.org/fhir/composition-status"/>
									<code value="final"/>
								</coding>
							</docStatus>
							<content>
								<attachment>
									<url value="urn:uuid:c719555e-f7e0-4ac6-b633-016450072cc5"/>
								</attachment>
							</content>
						</DocumentReference>
					</resource>
				</entry>
				<!--Discharge co-ordinator as the document recipient-->
				<entry>
					<fullUrl value="urn:uuid:16cf239a-a654-436c-a14d-72ef1fe6ea2c"/>
					<resource>
						<Practitioner>
							<id value="16cf239a-a654-436c-a14d-72ef1fe6ea2c"/>
							<meta>
								<!--Identifies the profile being used-->
								<profile value="https://fhir.hl7.org.uk/StructureDefinition/CareConnect-Practitioner-1"/>
							</meta>
							<name>
								<family value="Gulliver"/>
								<given value="Leticia"/>
							</name>
							<telecom>
								<system value="email"/>
								<value value="leticia.gulliver@nhs.net"/>
							</telecom>
							<telecom>
								<system value="phone"/>
								<value value="01911223344"/>
							</telecom>
							<practitionerRole>
								<!-- Indicates the practitioner's role(s) i.e. Discharge co-ordinator-->
								<role>
								<coding>
										<system value="https://fhir.hl7.org.uk/CareConnect-SDSJobRoleName-1"/>
										<code value="R8003"/>
										<display value="Health Professional Access Role"/>
									</coding>
									<text value="Discharge co-ordinator"/>
								</role>
							</practitionerRole>
						</Practitioner>
					</resource>
				</entry>
				<!--Patient as subject of the document-->
				<entry>
					<fullUrl value="urn:uuid:a94a119f-c6ce-4566-882c-4dd21bc600ef"/>
					<resource>
						<Patient>
							<id value="a94a119f-c6ce-4566-882c-4dd21bc600ef"/>
							<!--Identifies the profile being used-->
							<meta>
								<profile value="https://fhir.hl7.org.uk/StructureDefinition/CareConnect-Patient-1"/>
							</meta>
							<!--Primary patient identifier i.e. NHS number and code to indicate it's been verified-->
							<identifier>
								<extension url="https://fhir.hl7.org.uk/StructureDefinition/Extension-CareConnect-NHSNumberVerificationStatus-1">
									<valueCodeableConcept>
										<coding>
											<system value="https://fhir.hl7.org.uk/CareConnect-NHSNumberVerificationStatus-1"/>
											<code value="01"/>
											<display value="Number present and verified"/>
										</coding>
									</valueCodeableConcept>
								</extension>
								<system value="https://fhir.nhs.uk/Id/nhs-number"/>
								<value value="9413946000"/>
							</identifier>
							<identifier>
								<system value="https://fhir.nhs.uk/Id/local-patient-identifier"/>
								<value value="A1234521"/>
							</identifier>
							<name>
								<use value="usual"/>
								<family value="Jones"/>
								<given value="Barry"/>
							</name>
							<gender value="male"/>
							<birthDate value="1941-11-01"/>
							<address>
								<!-- Structured address-->
								<line value="The Old Lodge"/>
								<line value="1 Little Street"/>
								<line value="Chapeltown"/>
								<city value="Leeds"/>
								<district value="West Yorkshire"/>
								<postalCode value="LS6 1UR"/>
							</address>
						</Patient>
					</resource>
				</entry>
				<!--Local Authority Social worker as the author of the document.-->
				<entry>
					<fullUrl value="urn:uuid:49823cfd-bb1d-4a71-9d87-3a6817e02818"/>
					<resource>
						<Practitioner>
							<id value="49823cfd-bb1d-4a71-9d87-3a6817e02818"/>
							<meta>
								<!--Identifies the profile being used-->
								<profile value="https://fhir.hl7.org.uk/StructureDefinition/CareConnect-Practitioner-1"/>
							</meta>
							<name>
								<family value="Jones"/>
								<given value="Lee"/>
							</name>
							<telecom>
								<system value="email"/>
								<value value="lee.jones@nhs.net"/>
							</telecom>
							<telecom>
								<system value="phone"/>
								<value value="0191223888"/>
							</telecom>
							<practitionerRole>
							<!-- Indicates the practitioner's role(s)-->
								<role>
								<coding>
										<system value="https://fhir.hl7.org.uk/CareConnect-SDSJobRoleName-1"/>
										<code value="R8014"/>
										<display value="Social Worker Access Role"/>
									</coding>
									<text value="Approved Social Worker"/>
								</role>
							</practitionerRole>
						</Practitioner>
					</resource>
				</entry>
				<!--Local authority as the custodian of the document.-->
				<entry>
					<fullUrl value="urn:uuid:7b8732d6-7e31-4212-9bb4-b140323c2711"/>
					<resource>
						<Organization>
							<id value="7b8732d6-7e31-4212-9bb4-b140323c2711"/>
							<meta>
								<!--Identifies the profile being used-->
								<profile value="https://fhir.hl7.org.uk/StructureDefinition/CareConnect-Organization-1"/>
							</meta>
							<!--Organisation identifier - this example has a locally defined organisation code.-->
							<identifier>
								<system value="https://fhir.nhs.uk/Id/ods-organization-code"/>
								<value value="V396BB"/>
							</identifier>
							<!-- Type of organisation. -->
							<type>
								<coding>
									<system value="http://hl7.org/fhir/organization-type"/>
									<code value="govt"/>
									<display value="Government"/>
								</coding>
							</type>
							<name value="Hebburn Council"/>
						</Organization>
					</resource>
				</entry>
				<entry>
					<fullUrl value="urn:uuid:c719555e-f7e0-4ac6-b633-016450072cc5"/>
					<resource>
						<Binary>
							<id value="c719555e-f7e0-4ac6-b633-016450072cc5"/>
							<meta>
								<profile value="https://fhir.nhs.uk/StructureDefinition/cofe-binary-1"/>
							</meta>
							<contentType value="application/pdf"/>
							<content value="JVBERi0xLjUNCiW1tbW1DQoxIDAgb2JqDQo8PC9UeXBlL0NhdGFsb2cvUGFnZXMgMiAwIFIvTGFu
Zyhlbi1HQikgL1N0cnVjdFRyZWVSb290IDkgMCBSL01hcmtJbmZvPDwvTWFya2VkIHRydWU+Pj4+
DQplbmRvYmoNCjIgMCBvYmoNCjw8L1R5cGUvUGFnZXMvQ291bnQgMS9LaWRzWyAzIDAgUl0gPj4N
CmVuZG9iag0KMyAwIG9iag0KPDwvVHlwZS9QYWdlL1BhcmVudCAyIDAgUi9SZXNvdXJjZXM8PC9G
b250PDwvRjEgNSAwIFI+Pi9FeHRHU3RhdGU8PC9HUzcgNyAwIFI+Pi9Qcm9jU2V0Wy9QREYvVGV4
dC9JbWFnZUIvSW1hZ2VDL0ltYWdlSV0gPj4vTWVkaWFCb3hbIDAgMCA1OTUuMiA4NDEuNl0gL0Nv
bnRlbnRzIDQgMCBSL0dyb3VwPDwvVHlwZS9Hcm91cC9TL1RyYW5zcGFyZW5jeS9DUy9EZXZpY2VS
R0I+Pi9UYWJzL1MvU3RydWN0UGFyZW50cyAwPj4NCmVuZG9iag0KNCAwIG9iag0KPDwvRmlsdGVy
L0ZsYXRlRGVjb2RlL0xlbmd0aCAxNTM3Pj4NCnN0cmVhbQ0KeJytWW1P3EYQ/o7Ef/DHs5Rb9sXr
XVdRpPJSmqS0qKBWFfTDBQ4SJeGogUT5992dtXdmfV7jVBWSdbc3O/PM+3go9k6Lly/3Tg5eHxb8
1ati//Cg2D/f3dn7SRRCFuc3uzui4O5PFKqRTMvCaMuU++Xz7g4vbh3l8Zkpbh/8t+PdnYvFz6XW
i3Up1eJdfDz5R3tXSrkoyqWwdnG28UdX5VLJxQd/vvLfP3UUulqcAYv2S6lUIAi0cPpQ/l2cv9nd
OXJAPdgeoZaKNRTghWOGpMXRyUFREIUFUbjnUYmGGV2YqmKm43G0CkK9/MdSCMfUPf4oaxOQAaav
Ti++eBF+XgopnjdETomGpfIndZBjOlSCVYVRgomOxbnH9c3b8s4jAFQdTFAOTq+7U2f9P93TBDL4
vc2jNU4IFTWJVo2hrWsmVWFEzepe5V+97Y6UFy0IVvh8CJb+fToGKLNJRNUoIgmIuGK8Z6LROCel
4DzYBUzagZP+gEfIZhog5T0JUI8ADDxq27BKz+FR53kYzewsHmaEh5HO7XXtoq3Pt1MwC2QJ5sZd
POtMBe4Fys8uq7os+SFjMFEZF82JlFw0CsuZ1CntG++iTYSxxlzuk9W5dD9EeQv+vHQebppFe1lm
xMjaMK3zkLZsZ7O2c7rZnkUI7N/KpYOyn7UGF8zI9GLWHNwyoWfSuoIzl21nZaQtlu7EoTq/ulhw
kbvWuJBPr3G4scxeMIzbFBNEDnjzS845wgwNmxMgpUhJqR6iqXKayKpmRo1oMhkETTYIlDc90Q86
xxnNlc1kgggL4UjYPOPlOZSdkyMptY0zjWqqmnOetVDFlKK3ZxhI8KyFJGf1rI4+1tIDC14zMavg
irGWCjy0n4Dm8RhrdIGHsazRScYnbXbpvB0aTChSDIvUcVnpMEHAnAQPKLIwJIV5KedN19FqlQp/
kaV1LWFAO63sWA8NyjpWah6PsTYXeGjOmpmVbh4t5MA80pAECe3r0tjOIaSDwUgYZsAWfIItENrO
LZli4KcNzhPfYod6wkO8Gr6H8Rf7GDazKxxM4RLShJsBFYJ6n5XcdgDbtSf+J56TnvmI4XgT1ejC
dkUEj9szOFQZnM/JaP1AB3w8IBMCnSOcE0D2DQJC7dao4irO3l3XUOn4ex+T77mhZeiRYKVP8eUl
44ExjwNIIA06QvRcDzwa+BMDremQ7tkG02yihh/SsvAYh/6OfvOsgyrtcj/10DbWKd+6obIvkCQ+
0DMkjAP6rRTJZKJyPc4m/IN9gHX/WpUraA3jMrmbFWPUkHTKd5nm50Y0a2fJk1z7EYeSvo+x2kd+
5qrrrW4ImSXFGW9AuoqxBI9gyz7tMlys8B0UufiJQKgaGjvLyrYmdVw3CfzlX5+ToocRPci/QU5t
pcHQQ4RJEX8iPTJUq9FqAYfr2GLhE1QI9Ap9gZ7KBMHxBQ9lYaUg0bQeYk/eLd3pXZROrr4jV4Ug
hQ6hZwwUOgJuXD6ipKeo4irGORYmavWt8k+KFDH2Ktak7t5XnHngAcJJGRy2r+tB/QkVBI3Z3kZ1
u1kpV9oaGGuoX07RVMM6O+ncqtG4XiAlDYczsksZbe+3UautjjQM3xuscIOYbbc6E3EKiaSJzjRo
j0/DpodxH/xWRARJS8B+SNZ0SQd1BJBI7WZAdR3lBgYkL4hPSDO/iUYZjj80Rqe8Z6V/Ec21N/Ed
jTXu+6wlk0SLBg/oMC7C7/CRdub/cba4jx6jUxTc3a4Ojh4+4qwHhPe0/Qw96XWlZatHRuyHpvoY
ozvV2fEYAsfCmtSavipvnvdrbXEfhrgnCiM6v5/ih+LiVD+olmxigHBVJoEy/eIztpsL6uhqfBez
zSO7m6sqjiuqtxhlxLgh1G4xeK/RmdlXxMq9TqbMpwFmF2CVrN3AOYdFdn1SCRW3Gb+kMRQ0HN8A
ZjRzeNwrPuU5vX7P7ixU0+Cy4HLxo5937uM8Ecog1v7YWef8byRs50OZxwRryT7z+/4Jk5vcJDMm
1eM//KvGf8xuUlVlfCNNZEzbe2zBE1bZyuqJDc+/ZXtzvw0KZW5kc3RyZWFtDQplbmRvYmoNCjUg
MCBvYmoNCjw8L1R5cGUvRm9udC9TdWJ0eXBlL1RydWVUeXBlL05hbWUvRjEvQmFzZUZvbnQvQXJp
YWwvRW5jb2RpbmcvV2luQW5zaUVuY29kaW5nL0ZvbnREZXNjcmlwdG9yIDYgMCBSL0ZpcnN0Q2hh
ciAzMi9MYXN0Q2hhciAxMjEvV2lkdGhzIDM3IDAgUj4+DQplbmRvYmoNCjYgMCBvYmoNCjw8L1R5
cGUvRm9udERlc2NyaXB0b3IvRm9udE5hbWUvQXJpYWwvRmxhZ3MgMzIvSXRhbGljQW5nbGUgMC9B
c2NlbnQgOTA1L0Rlc2NlbnQgLTIxMC9DYXBIZWlnaHQgNzI4L0F2Z1dpZHRoIDQ0MS9NYXhXaWR0
aCAyNjY1L0ZvbnRXZWlnaHQgNDAwL1hIZWlnaHQgMjUwL0xlYWRpbmcgMzMvU3RlbVYgNDQvRm9u
dEJCb3hbIC02NjUgLTIxMCAyMDAwIDcyOF0gPj4NCmVuZG9iag0KNyAwIG9iag0KPDwvVHlwZS9F
eHRHU3RhdGUvQk0vTm9ybWFsL0NBIDE+Pg0KZW5kb2JqDQo4IDAgb2JqDQo8PC9BdXRob3IoS2F0
aWUgV2hlYXRsZXkpIC9DcmVhdG9yKP7/AE0AaQBjAHIAbwBzAG8AZgB0AK4AIABXAG8AcgBkACAA
MgAwADEAMCkgL0NyZWF0aW9uRGF0ZShEOjIwMTcwNjIwMTMxNzU0KzAxJzAwJykgL01vZERhdGUo
RDoyMDE3MDYyMDEzMTc1NCswMScwMCcpIC9Qcm9kdWNlcij+/wBNAGkAYwByAG8AcwBvAGYAdACu
ACAAVwBvAHIAZAAgADIAMAAxADApID4+DQplbmRvYmoNCjE1IDAgb2JqDQo8PC9UeXBlL09ialN0
bS9OIDI3L0ZpcnN0IDE5Mi9GaWx0ZXIvRmxhdGVEZWNvZGUvTGVuZ3RoIDUwMD4+DQpzdHJlYW0N
CniczVXBauMwEL0X+g/zB9JIlmRDKSzblpbSEOLAHkoPbqJNTB2ruAq0f78jT0p96KHWacHxaKR5
TzOZxxg1SEALBgEdoFSAJaDRgBUoWdAPlDGgELS0oBRo40BpKGQJqoDCUJghNIURiVWgHFgkXAnW
EqACR4RagnMSNEKZKBSUrgCtoSKQLqByFGLodorTlmxJadCD6QxQ0zZdgAVlgfRYSoGuQFtKuLgQ
yxQrYSVqsRTrj1cv6jgcN/G68wdx/wjyCcRyB6nQ1eXl+dkPIDgfouZD9HxIMR9i5kPsfIibDynn
Q6qMVua0P6P/mCEAzFAAZkgAMzSAGSLADBVghgwwQwcqQwfqWx1Un5BmiN93NQWkoToax6ZkM4LT
VB0NslFsGEdTdTSGDbMoZlHMophFM4tmFs0smlk0s2hm0SPLE5xqmCS9HrxfhRDFKnT+oXlNgzaV
R8X5fjxNIzftjBpnmsnpwr/He/8BeKK+Ia4+RC8W6XXdb7+cNYU+h3dR+00Ut77Z+oHXCfO5vuu7
tvf1vkkZpo1fPTE0sQ39yR9i+7ehxej9CcPLcwgv4ipsjgfKadx523sfuT8PzWYIE//3nt4T/6pt
urCbbNRdu/WTWL6HwnZDcxA37e44+FOti+Ph7TF9Pouvf/e/bv/52T98ywqLDQplbmRzdHJlYW0N
CmVuZG9iag0KMzcgMCBvYmoNClsgMjc4IDAgMCAwIDAgMCAwIDAgMzMzIDMzMyAwIDAgMjc4IDMz
MyAyNzggMCA1NTYgNTU2IDU1NiA1NTYgNTU2IDU1NiA1NTYgNTU2IDAgNTU2IDI3OCAwIDAgMCAw
IDAgMCA2NjcgNjY3IDAgNzIyIDY2NyAwIDc3OCA3MjIgMjc4IDUwMCA2NjcgNTU2IDgzMyA3MjIg
Nzc4IDY2NyAwIDcyMiA2NjcgNjExIDAgNjY3IDk0NCAwIDY2NyAwIDAgMCAwIDAgMCAwIDU1NiA1
NTYgNTAwIDU1NiA1NTYgMjc4IDU1NiA1NTYgMjIyIDAgNTAwIDIyMiA4MzMgNTU2IDU1NiA1NTYg
NTU2IDMzMyA1MDAgMjc4IDU1NiA1MDAgNzIyIDAgNTAwXSANCmVuZG9iag0KMzggMCBvYmoNCjw8
L1R5cGUvWFJlZi9TaXplIDM4L1dbIDEgNCAyXSAvUm9vdCAxIDAgUi9JbmZvIDggMCBSL0lEWzww
RUY4QjcwRjFGOEEzNzQyOTE4NzZGQkU4QkI5QTYyMT48MEVGOEI3MEYxRjhBMzc0MjkxODc2RkJF
OEJCOUE2MjE+XSAvRmlsdGVyL0ZsYXRlRGVjb2RlL0xlbmd0aCAxMDg+Pg0Kc3RyZWFtDQp4nDXO
SxKCMAyA4bQo0IKUhwp4VjYcwyV3YLiYB4DQH7PIN3nNRERj343mRuRkgjVitkhuYYm4GXSmfQnS
wwAjvOFa+eiB//4rAxYSuMEdUsggBwceCijhARUEqKGBFjp4wks/K38iBzb9CskNCmVuZHN0cmVh
bQ0KZW5kb2JqDQp4cmVmDQowIDM5DQowMDAwMDAwMDA5IDY1NTM1IGYNCjAwMDAwMDAwMTcgMDAw
MDAgbg0KMDAwMDAwMDEyNCAwMDAwMCBuDQowMDAwMDAwMTgwIDAwMDAwIG4NCjAwMDAwMDA0Mzgg
MDAwMDAgbg0KMDAwMDAwMjA1MCAwMDAwMCBuDQowMDAwMDAyMjA5IDAwMDAwIG4NCjAwMDAwMDI0
MzMgMDAwMDAgbg0KMDAwMDAwMjQ4NiAwMDAwMCBuDQowMDAwMDAwMDEwIDY1NTM1IGYNCjAwMDAw
MDAwMTEgNjU1MzUgZg0KMDAwMDAwMDAxMiA2NTUzNSBmDQowMDAwMDAwMDEzIDY1NTM1IGYNCjAw
MDAwMDAwMTQgNjU1MzUgZg0KMDAwMDAwMDAxNSA2NTUzNSBmDQowMDAwMDAwMDE2IDY1NTM1IGYN
CjAwMDAwMDAwMTcgNjU1MzUgZg0KMDAwMDAwMDAxOCA2NTUzNSBmDQowMDAwMDAwMDE5IDY1NTM1
IGYNCjAwMDAwMDAwMjAgNjU1MzUgZg0KMDAwMDAwMDAyMSA2NTUzNSBmDQowMDAwMDAwMDIyIDY1
NTM1IGYNCjAwMDAwMDAwMjMgNjU1MzUgZg0KMDAwMDAwMDAyNCA2NTUzNSBmDQowMDAwMDAwMDI1
IDY1NTM1IGYNCjAwMDAwMDAwMjYgNjU1MzUgZg0KMDAwMDAwMDAyNyA2NTUzNSBmDQowMDAwMDAw
MDI4IDY1NTM1IGYNCjAwMDAwMDAwMjkgNjU1MzUgZg0KMDAwMDAwMDAzMCA2NTUzNSBmDQowMDAw
MDAwMDMxIDY1NTM1IGYNCjAwMDAwMDAwMzIgNjU1MzUgZg0KMDAwMDAwMDAzMyA2NTUzNSBmDQow
MDAwMDAwMDM0IDY1NTM1IGYNCjAwMDAwMDAwMzUgNjU1MzUgZg0KMDAwMDAwMDAzNiA2NTUzNSBm
DQowMDAwMDAwMDAwIDY1NTM1IGYNCjAwMDAwMDMzMTUgMDAwMDAgbg0KMDAwMDAwMzYzNiAwMDAw
MCBuDQp0cmFpbGVyDQo8PC9TaXplIDM5L1Jvb3QgMSAwIFIvSW5mbyA4IDAgUi9JRFs8MEVGOEI3
MEYxRjhBMzc0MjkxODc2RkJFOEJCOUE2MjE+PDBFRjhCNzBGMUY4QTM3NDI5MTg3NkZCRThCQjlB
NjIxPl0gPj4NCnN0YXJ0eHJlZg0KMzk0NA0KJSVFT0YNCnhyZWYNCjAgMA0KdHJhaWxlcg0KPDwv
U2l6ZSAzOS9Sb290IDEgMCBSL0luZm8gOCAwIFIvSURbPDBFRjhCNzBGMUY4QTM3NDI5MTg3NkZC
RThCQjlBNjIxPjwwRUY4QjcwRjFGOEEzNzQyOTE4NzZGQkU4QkI5QTYyMT5dIC9QcmV2IDM5NDQv
WFJlZlN0bSAzNjM2Pj4NCnN0YXJ0eHJlZg0KNDg3OQ0KJSVFT0Y="/>
						</Binary>
					</resource>
				</entry>
			</Bundle>
		</resource>
	</entry>
</Bundle>
