<?xml version="1.0" encoding="UTF-8"?>
<!--Withdrawal notice reject response-->
<Bundle xmlns="http://hl7.org/fhir" xmlns:xsi="http://www.w3.org/2001/XMLSchema-instance" xsi:schemaLocation="http://hl7.org/fhir ../../Schemas/bundle.xsd">
	<id value="8f856d0d-7836-4d46-b138-a370ea244b85"/>
	<meta>
		<profile value="https://fhir.nhs.uk/StructureDefinition/adw-message-bundle-1"/>
	</meta>
	<type value="message"/>
	<entry>
		<fullUrl value="urn:uuid:34e29318-9558-4536-b03f-5241b616b699"/>
		<resource>
			<MessageHeader>
				<id value="34e29318-9558-4536-b03f-5241b616b699"/>
				<meta>
					<profile value="https://fhir.nhs.uk/StructureDefinition/adw-withdrawal-notice-reject-response-message-header-1"/>
				</meta>
				<timestamp value="2017-05-04T15:16:55+00:00"/>
				<event>
					<system value="http://snomed.info/sct"/>
					<code value="1025641000000106"/>
				</event>
				<response>
					<!-- id of the message header this is the response to -->
					<identifier value="5bfa2a2e-923b-440d-82d6-38e24b666be6"/>
					<code value="ok"/>
				</response>
				<source>
					<name value="Local Authority Sending System"/>
					<endpoint value="urn:nhs-uk:addressing:ods:V396BB"/>
				</source>
				<destination>
					<name value="Hospital Receiving System"/>
					<endpoint value="urn:nhs-uk:addressing:ods:RFM8C2"/>
				</destination>
				<author>
					<!-- The local authority social worker -->
					<reference value="urn:uuid:b36b91cc-e7b4-4148-bd4f-51e404d595c4">
					</reference>
				</author>
				<receiver>
					<!-- The hospital liaison -->
					<reference value="urn:uuid:caedf8f7-f605-497b-922e-732b492fee3d"/>
				</receiver>
				<responsible>
					<reference value="urn:uuid:43096d15-a84f-4cba-b37f-b2c105ff1d38"/>
				</responsible>
				<reason>
					<coding>
						<system value="https://fhir.nhs.uk/adw-withdrawal-notice-reject-reason-1"/>
						<code value="OFT"/>
						<display value="Other - Free Text"/>
					</coding>
					<text value="Patient has died."/>
				</reason>
				<data>
					<reference value="urn:uuid:06d847a2-efd0-484e-8317-09efd9433e5f"/>
				</data>
			</MessageHeader>
		</resource>
	</entry>
	<entry>
		<fullUrl value="urn:uuid:06d847a2-efd0-484e-8317-09efd9433e5f"/>
		<resource>
			<ReferralRequest>
				<id value="06d847a2-efd0-484e-8317-09efd9433e5f"/>
				<meta>
					<profile value="https://fhir.nhs.uk/StructureDefinition/adw-referral-request-cancelled-1"/>
				</meta>
				<status value="cancelled"/>
				<identifier>
					<value value="311fcae7-32a7-4a8e-a15c-eebae3a246b9"/>
				</identifier>
				<patient>
					<reference value="urn:uuid:f613b047-a68a-4f9a-bfd2-83054f2c8bd8"/>
				</patient>
				<requester>
					<reference value="urn:uuid:caedf8f7-f605-497b-922e-732b492fee3d"/>
				</requester>
				<recipient>
					<reference value="urn:uuid:7236046e-488a-4a1e-adaf-2fa9299da940"/>
				</recipient>
				<encounter>
					<reference value="urn:uuid:f91294c9-4d3a-4a84-a48f-f8af335ce08e"/>
				</encounter>
			</ReferralRequest>
		</resource>
	</entry>
	<entry>
		<fullUrl value="urn:uuid:f613b047-a68a-4f9a-bfd2-83054f2c8bd8"/>
		<resource>
			<Patient>
				<id value="f613b047-a68a-4f9a-bfd2-83054f2c8bd8"/>
				<!--Identifies the profile being used-->
				<meta>
					<profile value="https://fhir.hl7.org.uk/StructureDefinition/CareConnect-Patient-1"/>
				</meta>
				<!--Primary patient identifier i.e. NHS number -->
				<identifier>
					<extension url="https://fhir.hl7.org.uk/StructureDefinition/Extension-CareConnect-NHSNumberVerificationStatus-1">
						<valueCodeableConcept>
							<coding>
								<system value="https://fhir.hl7.org.uk/CareConnect-NHSNumberVerificationStatus-1"/>
								<code value="01"/>
								<display value="Number present and verified"/>
							</coding>
						</valueCodeableConcept>
					</extension>
					<system value="https://fhir.nhs.uk/Id/nhs-number"/>
					<value value="9413946000"/>
				</identifier>
				<identifier>
					<system value="https://fhir.nhs.uk/Id/local-patient-identifier"/>
					<value value="A1234521"/>
					<assigner>
						<!-- This can be a reference to the profile elsewhere in the message or just text -->
						<reference value="urn:uuid:cb3aa670-4265-407a-beba-05f4ab78fca4"/>
					</assigner>
				</identifier>
				<name>
					<use value="usual"/>
					<family value="Jones"/>
					<given value="Barry"/>
				</name>
				<gender value="male"/>
				<birthDate value="1941-11-01"/>
			</Patient>
		</resource>
	</entry>
	<entry>
		<fullUrl value="urn:uuid:caedf8f7-f605-497b-922e-732b492fee3d"/>
		<resource>
			<Practitioner>
				<id value="caedf8f7-f605-497b-922e-732b492fee3d"/>
				<meta>
					<!--Identifies the profile being used-->
					<profile value="https://fhir.hl7.org.uk/StructureDefinition/CareConnect-ADW-Practitioner-1"/>
				</meta>
				<name>
					<family value="Gulliver"/>
					<given value="Leticia"/>
				</name>
				<telecom>
					<system value="email"/>
					<value value="leticia.gulliver@nhs.net"/>
				</telecom>
				<telecom>
					<system value="phone"/>
					<value value="01131223344"/>
				</telecom>
				<practitionerRole>
					<managingOrganization>
						<reference value="urn:uuid:cb3aa670-4265-407a-beba-05f4ab78fca4"/>
					</managingOrganization>
					<!-- Indicates the practitioner's role(s) i.e. Discharge co-ordinator-->
					<role>
						<coding>
							<system value="https://fhir.nhs.uk/job-role-name-1"/>
							<code value="NR2060"/>
							<display value="Discharge coordinator"/>
						</coding>
						<text value="Hospital Liaison"/>
					</role>
				</practitionerRole>
			</Practitioner>
		</resource>
	</entry>
	<entry>
		<fullUrl value="urn:uuid:b36b91cc-e7b4-4148-bd4f-51e404d595c4"/>
		<resource>
			<Practitioner>
				<id value="b36b91cc-e7b4-4148-bd4f-51e404d595c4"/>
				<meta>
					<!--Identifies the profile being used-->
					<profile value="https://fhir.hl7.org.uk/StructureDefinition/CareConnect-ADW-Practitioner-1"/>
				</meta>
				<name>
					<family value="Jones"/>
					<given value="Lee"/>
				</name>
				<telecom>
					<system value="email"/>
					<value value="lee.jones@nhs.net"/>
				</telecom>
				<telecom>
					<system value="phone"/>
					<value value="0191223888"/>
				</telecom>
				<practitionerRole>
					<managingOrganization>
						<reference value="urn:uuid:7236046e-488a-4a1e-adaf-2fa9299da940"/>
					</managingOrganization>
					<!-- Indicates the practitioners role(s) i.e. Discharge co-ordinator-->
					<role>
						<coding>
							<system value="https://fhir.nhs.uk/job-role-name-1"/>
							<code value="NR1340"/>
							<display value="Approved Social Worker"/>
						</coding>
						<text value="Local Authority Contact (Social Worker)"/>
					</role>
				</practitionerRole>
			</Practitioner>
		</resource>
	</entry>
	<entry>
		<fullUrl value="urn:uuid:cb3aa670-4265-407a-beba-05f4ab78fca4"/>
		<resource>
			<Organization>
				<id value="cb3aa670-4265-407a-beba-05f4ab78fca4"/>
				<meta>
					<!--Identifies the profile being used-->
					<profile value="https://fhir.hl7.org.uk/StructureDefinition/CareConnect-Organization-1"/>
				</meta>
				<!--Organisation identifier -->
				<identifier>
					<system value="https://fhir.nhs.uk/Id/ods-site-code"/>
					<value value="RFM8C2"/>
				</identifier>
				<!-- Type of organisation. -->
				<type>
					<coding>
						<system value="http://hl7.org/fhir/organization-type"/>
						<code value="prov"/>
						<display value="Healthcare Provider"/>
					</coding>
					<text value="Hospital"/>
				</type>
				<name value="Hebburn Hospital"/>
			</Organization>
		</resource>
	</entry>
	<entry>
		<fullUrl value="urn:uuid:43096d15-a84f-4cba-b37f-b2c105ff1d38"/>
		<resource>
			<Organization>
				<id value="43096d15-a84f-4cba-b37f-b2c105ff1d38"/>
				<meta>
					<!--Identifies the profile being used-->
					<profile value="https://fhir.hl7.org.uk/StructureDefinition/CareConnect-Organization-1"/>
				</meta>
				<!--Organisation identifier -->
				<identifier>
					<system value="https://fhir.nhs.uk/Id/ods-organization-code"/>
					<value value="V396BB"/>
				</identifier>
				<!-- Type of organisation. -->
				<type>
					<coding>
						<system value="http://hl7.org/fhir/organization-type"/>
						<code value="govt"/>
						<display value="Government"/>
					</coding>
					<text value="Local Authority"/>
				</type>
				<name value="Hebburn Council"/>
			</Organization>
		</resource>
	</entry>
	<entry>
		<fullUrl value="urn:uuid:7236046e-488a-4a1e-adaf-2fa9299da940"/>
		<resource>
			<Organization>
				<id value="7236046e-488a-4a1e-adaf-2fa9299da940"/>
				<meta>
					<!--Identifies the profile being used-->
					<profile value="https://fhir.hl7.org.uk/StructureDefinition/CareConnect-Organization-1"/>
				</meta>
				<!-- Type of organisation. -->
				<type>
					<coding>
						<system value="http://hl7.org/fhir/organization-type"/>
						<code value="team"/>
						<display value="Organizational team"/>
					</coding>
					<text value="Local Authority Social Services' Team"/>
				</type>
				<name value="Hebburn Social Services' Community Team"/>
				<partOf>
					<reference value="urn:uuid:43096d15-a84f-4cba-b37f-b2c105ff1d38"/>
				</partOf>
			</Organization>
		</resource>
	</entry>
	<entry>
		<fullUrl value="urn:uuid:f91294c9-4d3a-4a84-a48f-f8af335ce08e"/>
		<resource>
			<Encounter>
				<id value="f91294c9-4d3a-4a84-a48f-f8af335ce08e"/>
				<meta>
					<profile value="https://fhir.hl7.org.uk/StructureDefinition/CareConnect-ADW-Encounter-1"/>
				</meta>
				<identifier>
					<system value="https://fhir.nhs.uk/encounter-id"/>
					<!--Same encounter ID for all encounters across all messages-->
					<value value="2562b8b6-c0db-424a-8c6b-0fa43b0d6c2f"/>
				</identifier>
				<status value="in-progress"/>
				<class value="inpatient"/>
				<patient>
					<reference value="urn:uuid:f613b047-a68a-4f9a-bfd2-83054f2c8bd8"/>
				</patient>
				<location>
					<location>
						<reference value="urn:uuid:3c195314-2f4c-4c16-ad62-076a8349e7ab"/>
					</location>
				</location>
				<serviceProvider>
					<reference value="urn:uuid:cb3aa670-4265-407a-beba-05f4ab78fca4"/>
				</serviceProvider>
			</Encounter>
		</resource>
	</entry>
	<entry>
		<fullUrl value="urn:uuid:3c195314-2f4c-4c16-ad62-076a8349e7ab"/>
		<resource>
			<Location>
				<id value="3c195314-2f4c-4c16-ad62-076a8349e7ab"/>
				<meta>
					<!--Identifies the profile being used-->
					<profile value="https://fhir.hl7.org.uk/StructureDefinition/CareConnect-Location-1"/>
				</meta>
				<name value="Collier Ward"/>
				<managingOrganization>
					<reference value="urn:uuid:cb3aa670-4265-407a-beba-05f4ab78fca4"/>
				</managingOrganization>
			</Location>
		</resource>
	</entry>
</Bundle>
