<Bundle xmlns="http://hl7.org/fhir"><id value="6fd6b8f8-a626-454d-833d-e22bf402cd26" /><meta><profile value="https://fhir.nhs.uk/StructureDefinition/adw-message-bundle-1" /></meta><type value="message" /><entry><fullUrl value="urn:uuid:236103d8-ea79-42d5-8078-2e9b0ed4d517" /><resource><MessageHeader><id value="236103d8-ea79-42d5-8078-2e9b0ed4d517" /><meta><profile value="https://fhir.nhs.uk/StructureDefinition/adw-assessment-notice-reject-response-message-header-1" /></meta><timestamp value="2017-05-02T15:10:15+00:00" /><event><system value="http://snomed.info/sct" /><code value="975721000000102" /></event><response><identifier value="5bfa2a2e-923b-440d-82d6-38e24b666be6" /><code value="ok" /></response><source><endpoint value="urn:nhs-uk:addressing:ods:V396BB" /></source><destination><endpoint value="urn:nhs-uk:addressing:ods:RFM8C2" /></destination><author><reference value="urn:uuid:d5228f4a-357c-4fc3-b7da-a41315c7c768" /></author><receiver><reference value="urn:uuid:75a7388d-abbf-4bd2-8008-a602435aa2b3" /></receiver><responsible><reference value="urn:uuid:71583f7a-6572-49fc-be7f-3bb83bdbaab1" /></responsible><reason><coding><system value="https://fhir.nhs.uk/adw-notice-reject-reason-1" /><code value="OFT" /><display value="Other - Free Text" /></coding><text value="Informed that patient has had further chest pain in hospital since receipt of the notice and is remaining as an inpatient until his condition improves." /></reason><data><reference value="urn:uuid:4c8afe0b-ed78-4f4b-b37f-5d930f45bc63" /></data></MessageHeader></resource></entry><entry><fullUrl value="urn:uuid:4c8afe0b-ed78-4f4b-b37f-5d930f45bc63" /><resource><ReferralRequest><id value="4c8afe0b-ed78-4f4b-b37f-5d930f45bc63" /><meta><profile value="https://fhir.nhs.uk/StructureDefinition/adw-referral-request-rejected-1" /></meta><status value="rejected" /><identifier><value value="311fcae7-32a7-4a8e-a15c-eebae3a246b9" /></identifier><patient><reference value="urn:uuid:79449d15-3b98-46d6-8d3a-219ac854f96c" /></patient><requester><reference value="urn:uuid:75a7388d-abbf-4bd2-8008-a602435aa2b3" /></requester><recipient><reference value="urn:uuid:3173bcfa-130b-4e40-9aac-7b9c69cb1350" /></recipient><encounter><reference value="urn:uuid:c73b7b39-a5b5-4d60-9a68-fa07ef37c258" /></encounter></ReferralRequest></resource></entry><entry><fullUrl value="urn:uuid:c73b7b39-a5b5-4d60-9a68-fa07ef37c258" /><resource><Encounter><id value="c73b7b39-a5b5-4d60-9a68-fa07ef37c258" /><meta><profile value="https://fhir.nhs.uk/StructureDefinition/CareConnect-ADW-Encounter-1" /></meta><identifier><system value="https://fhir.nhs.uk/encounter-id" /><value value="2562b8b6-c0db-424a-8c6b-0fa43b0d6c2f" /></identifier><status value="in-progress" /><class value="inpatient" /><priority><coding><system value="https://fhir.nhs.uk/adw-admission-type-1" /><code value="E" /><display value="Emergency" /></coding></priority><patient><reference value="urn:uuid:79449d15-3b98-46d6-8d3a-219ac854f96c" /></patient><location><location><reference value="urn:uuid:10eb367a-78d8-4ea6-9e09-080c765bf2b6" /></location></location><serviceProvider><reference value="urn:uuid:86ca79fd-0e26-4ac1-b74f-c071902bee41" /></serviceProvider></Encounter></resource></entry><entry><fullUrl value="urn:uuid:79449d15-3b98-46d6-8d3a-219ac854f96c" /><resource><Patient><id value="79449d15-3b98-46d6-8d3a-219ac854f96c" /><meta><profile value="https://fhir.hl7.org.uk/StructureDefinition/CareConnect-Patient-1" /></meta><identifier><extension url="https://fhir.hl7.org.uk/StructureDefinition/Extension-CareConnect-NHSNumberVerificationStatus-1"><valueCodeableConcept><coding><system value="https://fhir.hl7.org.uk/CareConnect-NHSNumberVerificationStatus-1" /><code value="01" /><display value="Number present and verified" /></coding></valueCodeableConcept></extension><system value="https://fhir.nhs.uk/Id/nhs-number" /><value value="9413946000" /></identifier><identifier><system value="https://fhir.nhs.uk/Id/local-patient-identifier" /><value value="A1234521" /><assigner><reference value="urn:uuid:86ca79fd-0e26-4ac1-b74f-c071902bee41" /></assigner></identifier><name><use value="usual" /><family value="Jones" /><given value="Barry" /></name><gender value="male" /><birthDate value="1941-11-01" /></Patient></resource></entry><entry><fullUrl value="urn:uuid:75a7388d-abbf-4bd2-8008-a602435aa2b3" /><resource><Practitioner><id value="75a7388d-abbf-4bd2-8008-a602435aa2b3" /><meta><profile value="https://fhir.nhs.uk/StructureDefinition/CareConnect-ADW-Practitioner-1" /></meta><name><family value="Gulliver" /><given value="Leticia" /></name><telecom><system value="email" /><value value="leticia.gulliver@nhs.net" /></telecom><telecom><system value="phone" /><value value="01911223344" /></telecom><practitionerRole><managingOrganization><reference value="urn:uuid:86ca79fd-0e26-4ac1-b74f-c071902bee41" /></managingOrganization><role><coding><system value="https://fhir.nhs.uk/job-role-name-1" /><code value="NR2060" /><display value="Discharge coordinator" /></coding></role></practitionerRole></Practitioner></resource></entry><entry><fullUrl value="urn:uuid:d5228f4a-357c-4fc3-b7da-a41315c7c768" /><resource><Practitioner><id value="d5228f4a-357c-4fc3-b7da-a41315c7c768" /><meta><profile value="https://fhir.nhs.uk/StructureDefinition/CareConnect-ADW-Practitioner-1" /></meta><name><family value="Jones" /><given value="Lee" /></name><telecom><system value="email" /><value value="lee.jones@nhs.net" /></telecom><telecom><system value="phone" /><value value="0191223888" /></telecom><practitionerRole><managingOrganization><reference value="urn:uuid:3173bcfa-130b-4e40-9aac-7b9c69cb1350" /></managingOrganization><role><coding><system value="https://fhir.nhs.uk/job-role-name-1" /><code value="NR1340" /><display value="Approved Social Worker" /></coding></role></practitionerRole></Practitioner></resource></entry><entry><fullUrl value="urn:uuid:86ca79fd-0e26-4ac1-b74f-c071902bee41" /><resource><Organization><id value="86ca79fd-0e26-4ac1-b74f-c071902bee41" /><meta><profile value="https://fhir.hl7.org.uk/StructureDefinition/CareConnect-Organization-1" /></meta><identifier><system value="https://fhir.nhs.uk/Id/ods-site-code" /><value value="RFM8C2" /></identifier><type><coding><system value="http://hl7.org/fhir/organization-type" /><code value="prov" /><display value="Healthcare Provider" /></coding></type><name value="Hebburn Hospital" /></Organization></resource></entry><entry><fullUrl value="urn:uuid:71583f7a-6572-49fc-be7f-3bb83bdbaab1" /><resource><Organization><id value="71583f7a-6572-49fc-be7f-3bb83bdbaab1" /><meta><profile value="https://fhir.hl7.org.uk/StructureDefinition/CareConnect-Organization-1" /></meta><identifier><system value="https://fhir.nhs.uk/Id/ods-organization-code" /><value value="V396BB" /></identifier><type><coding><system value="http://hl7.org/fhir/organization-type" /><code value="govt" /><display value="Government" /></coding></type><name value="Hebburn Council" /></Organization></resource></entry><entry><fullUrl value="urn:uuid:3173bcfa-130b-4e40-9aac-7b9c69cb1350" /><resource><Organization><id value="3173bcfa-130b-4e40-9aac-7b9c69cb1350" /><meta><profile value="https://fhir.hl7.org.uk/StructureDefinition/CareConnect-Organization-1" /></meta><type><coding><system value="http://hl7.org/fhir/organization-type" /><code value="team" /><display value="Organizational team" /></coding></type><name value="Hebburn Social Services' Community Team" /><partOf><reference value="urn:uuid:71583f7a-6572-49fc-be7f-3bb83bdbaab1" /></partOf></Organization></resource></entry><entry><fullUrl value="urn:uuid:10eb367a-78d8-4ea6-9e09-080c765bf2b6" /><resource><Location><id value="10eb367a-78d8-4ea6-9e09-080c765bf2b6" /><meta><profile value="https://fhir.hl7.org.uk/StructureDefinition/CareConnect-Location-1" /></meta><name value="Collier Ward" /><managingOrganization><reference value="urn:uuid:86ca79fd-0e26-4ac1-b74f-c071902bee41" /></managingOrganization></Location></resource></entry></Bundle>