<Bundle xmlns="http://hl7.org/fhir"><id value="b574fc18-5af6-11e6-8b77-86f30ca893d3" /><meta><profile value="https://fhir.nhs.uk/StructureDefinition/ADW-Message-Bundle-1" /></meta><type value="message" /><entry><fullUrl value="urn:uuid:19db5f65-1bad-4ce1-be05-92ff79ab1c8f" /><resource><MessageHeader><id value="19db5f65-1bad-4ce1-be05-92ff79ab1c8f" /><meta><profile value="https://fhir.nhs.uk/StructureDefinition/ADW-DischargeNoticeAcceptResponse-MessageHeader-1" /></meta><timestamp value="2017-05-05T15:13:18+00:00" /><event><system value="http://snomed.info/sct" /><code value="975821000000109" /></event><response><identifier value="19db5f65-1bad-4ce1-be05-92ff79ab1c8f" /><code value="ok" /></response><source><endpoint value="urn:nhs-uk:addressing:ods:V396BB" /></source><destination><endpoint value="urn:nhs-uk:addressing:ods:RFM8C2" /></destination><author><reference value="urn:uuid:6babc18b-9f20-4fb1-ba0d-d4e3ae2c7cc7" /></author><receiver><reference value="urn:uuid:49edc68d-cb09-49c9-8edf-285e931042ce" /></receiver><responsible><reference value="urn:uuid:dafc0a1e-e120-4ba7-b638-0ce50a018146" /></responsible><reason><coding><system value="https://fhir.nhs.uk/ADW-NoticeAcceptReason-1" /><code value="OFT" /><display value="Other - Free Text" /></coding><text value="Assessment in patient's new home required due to his current reduced mobility." /></reason><data><reference value="urn:uuid:076a300f-5234-4309-95eb-9a64714bbb06" /></data></MessageHeader></resource></entry><entry><fullUrl value="urn:uuid:076a300f-5234-4309-95eb-9a64714bbb06" /><resource><ReferralRequest><id value="076a300f-5234-4309-95eb-9a64714bbb06" /><meta><profile value="https://fhir.nhs.uk/StructureDefinition/ADW-Accept-ReferralRequest-1" /></meta><status value="accepted" /><identifier><value value="311fcae7-32a7-4a8e-a15c-eebae3a246b9" /></identifier><patient><reference value="urn:uuid:08fc7a07-394a-4948-a7b0-e0a87c77b231" /></patient><requester><reference value="urn:uuid:49edc68d-cb09-49c9-8edf-285e931042ce" /></requester><recipient><reference value="urn:uuid:41e0fd49-d1e5-422a-b9ba-643e00a541a4" /></recipient><encounter><reference value="urn:uuid:2a1def1b-497a-4621-9397-87754a63e4e5" /></encounter><supportingInformation><reference value="urn:uuid:fb372c95-9d76-4db1-939c-c0b0c564f795" /></supportingInformation></ReferralRequest></resource></entry><entry><fullUrl value="urn:uuid:2a1def1b-497a-4621-9397-87754a63e4e5" /><resource><Encounter><id value="2a1def1b-497a-4621-9397-87754a63e4e5" /><meta><profile value="https://fhir.nhs.uk/StructureDefinition/CareConnect-ADW-Encounter-1" /></meta><identifier><system value="https://fhir.nhs.uk/encounter-id" /><value value="2562b8b6-c0db-424a-8c6b-0fa43b0d6c2f" /></identifier><status value="in-progress" /><class value="inpatient" /><priority><coding><system value="https://fhir.nhs.uk/ADW-AdmissionType-1" /><code value="E" /><display value="Emergency" /></coding></priority><patient><reference value="urn:uuid:08fc7a07-394a-4948-a7b0-e0a87c77b231" /></patient><location><location><reference value="urn:uuid:a33f0b53-41a7-4cb6-9dc5-5fac6bee084c" /></location></location><serviceProvider><reference value="urn:uuid:148eaefb-6dd0-4848-b13d-317bee9f308f" /></serviceProvider></Encounter></resource></entry><entry><fullUrl value="urn:uuid:08fc7a07-394a-4948-a7b0-e0a87c77b231" /><resource><Patient><id value="08fc7a07-394a-4948-a7b0-e0a87c77b231" /><meta><profile value="https://fhir.hl7.org.uk/StructureDefinition/CareConnect-Patient-1" /></meta><identifier><extension url="https://fhir.hl7.org.uk/StructureDefinition/Extension-CareConnect-NHSNumberVerificationStatus-1"><valueCodeableConcept><coding><system value="https://fhir.hl7.org.uk/CareConnect-NHSNumberVerificationStatus-1" /><code value="01" /><display value="Number present and verified" /></coding></valueCodeableConcept></extension><system value="https://fhir.nhs.uk/Id/nhs-number" /><value value="9413946000" /></identifier><identifier><system value="https://fhir.nhs.uk/Id/local-patient-identifier" /><value value="A1234521" /><assigner><reference value="urn:uuid:148eaefb-6dd0-4848-b13d-317bee9f308f" /></assigner></identifier><name><use value="usual" /><family value="Jones" /><given value="Barry" /></name><gender value="male" /><birthDate value="1941-11-01" /></Patient></resource></entry><entry><fullUrl value="urn:uuid:49edc68d-cb09-49c9-8edf-285e931042ce" /><resource><Practitioner><id value="49edc68d-cb09-49c9-8edf-285e931042ce" /><meta><profile value="https://fhir.hl7.org.uk/StructureDefinition/CareConnect-Practitioner-1" /></meta><name><family value="Gulliver" /><given value="Leticia" /></name><telecom><system value="email" /><value value="leticia.gulliver@nhs.net" /></telecom><telecom><system value="phone" /><value value="01911223344" /></telecom><practitionerRole><managingOrganization><reference value="urn:uuid:148eaefb-6dd0-4848-b13d-317bee9f308f" /></managingOrganization><role><coding><system value="https://fhir.hl7.org.uk/CareConnect-SDSJobRoleName-1" /><code value="R8003" /><display value="Health Professional Access Role" /></coding><text value="Discharge co-ordinator" /></role></practitionerRole></Practitioner></resource></entry><entry><fullUrl value="urn:uuid:6babc18b-9f20-4fb1-ba0d-d4e3ae2c7cc7" /><resource><Practitioner><id value="6babc18b-9f20-4fb1-ba0d-d4e3ae2c7cc7" /><meta><profile value="https://fhir.hl7.org.uk/StructureDefinition/CareConnect-Practitioner-1" /></meta><name><family value="Jones" /><given value="Lee" /></name><telecom><system value="email" /><value value="lee.jones@nhs.net" /></telecom><telecom><system value="phone" /><value value="0191223888" /></telecom><practitionerRole><managingOrganization><reference value="urn:uuid:41e0fd49-d1e5-422a-b9ba-643e00a541a4" /></managingOrganization><role><coding><system value="https://fhir.hl7.org.uk/CareConnect-SDSJobRoleName-1" /><code value="R1340" /><display value="Approved Social Worker" /></coding></role></practitionerRole></Practitioner></resource></entry><entry><fullUrl value="urn:uuid:148eaefb-6dd0-4848-b13d-317bee9f308f" /><resource><Organization><id value="148eaefb-6dd0-4848-b13d-317bee9f308f" /><meta><profile value="https://fhir.hl7.org.uk/StructureDefinition/CareConnect-Organization-1" /></meta><identifier><system value="https://fhir.nhs.uk/Id/ods-site-code" /><value value="RFM8C2" /></identifier><type><coding><system value="http://hl7.org/fhir/organization-type" /><code value="prov" /><display value="Healthcare Provider" /></coding></type><name value="Hebburn Hospital" /></Organization></resource></entry><entry><fullUrl value="urn:uuid:dafc0a1e-e120-4ba7-b638-0ce50a018146" /><resource><Organization><id value="dafc0a1e-e120-4ba7-b638-0ce50a018146" /><meta><profile value="https://fhir.hl7.org.uk/StructureDefinition/CareConnect-Organization-1" /></meta><identifier><system value="https://fhir.nhs.uk/Id/ods-organization-code" /><value value="V396BB" /></identifier><type><coding><system value="http://hl7.org/fhir/organization-type" /><code value="govt" /><display value="Government" /></coding></type><name value="Hebburn Council" /></Organization></resource></entry><entry><fullUrl value="urn:uuid:41e0fd49-d1e5-422a-b9ba-643e00a541a4" /><resource><Organization><id value="41e0fd49-d1e5-422a-b9ba-643e00a541a4" /><meta><profile value="https://fhir.hl7.org.uk/StructureDefinition/CareConnect-Organization-1" /></meta><type><coding><system value="http://hl7.org/fhir/organization-type" /><code value="team" /><display value="Organizational team" /></coding></type><name value="Hebburn Social Services' Community Team" /><partOf><reference value="urn:uuid:dafc0a1e-e120-4ba7-b638-0ce50a018146" /></partOf></Organization></resource></entry><entry><fullUrl value="urn:uuid:a33f0b53-41a7-4cb6-9dc5-5fac6bee084c" /><resource><Location><id value="a33f0b53-41a7-4cb6-9dc5-5fac6bee084c" /><meta><profile value="https://fhir.hl7.org.uk/StructureDefinition/CareConnect-Location-1" /></meta><name value="Collier Ward" /><managingOrganization><reference value="urn:uuid:148eaefb-6dd0-4848-b13d-317bee9f308f" /></managingOrganization></Location></resource></entry><entry><fullUrl value="urn:uuid:fb372c95-9d76-4db1-939c-c0b0c564f795" /><resource><Bundle><id value="fb372c95-9d76-4db1-939c-c0b0c564f795" /><meta><profile value="https://fhir.nhs.uk/StructureDefinition/ITK-Document-Bundle-1" /></meta><type value="document" /><entry><fullUrl value="urn:uuid:01392d7c-4c29-4608-9f87-10829ad4af34" /><resource><DocumentReference><id value="01392d7c-4c29-4608-9f87-10829ad4af34" /><meta><profile value="https://fhir.nhs.uk/StructureDefinition/ITK-DocumentReference-1" /></meta><extension url="https://fhir.nhs.uk/StructureDefinition/Extension-ITK-InformationRecipient-1"><valueReference><reference value="urn:uuid:16cf239a-a654-436c-a14d-72ef1fe6ea2c" /></valueReference></extension><extension url="https://fhir.nhs.uk/StructureDefinition/Extension-ITK-CareSettingType-1"><valueCodeableConcept><coding><system value="http://snomed.info/sct" /><code value="408458006" /><display value="Specialist multidisciplinary team (qualifier value)" /></coding></valueCodeableConcept></extension><subject><reference value="urn:uuid:a94a119f-c6ce-4566-882c-4dd21bc600ef" /></subject><type><coding><system value="http://snomed.info/sct" /><code value="823751000000102" /><display value="Letter (record artifact)" /></coding></type><author><reference value="urn:uuid:49823cfd-bb1d-4a71-9d87-3a6817e02818" /></author><custodian><reference value="urn:uuid:7b8732d6-7e31-4212-9bb4-b140323c2711" /></custodian><indexed value="2017-05-17T10:00:00+00:00" /><status value="current" /><docStatus><coding><system value="http://hl7.org/fhir/composition-status" /><code value="final" /><display value="Final" /></coding></docStatus><content><attachment><url value="urn:uuid:c719555e-f7e0-4ac6-b633-016450072cc5" /></attachment></content></DocumentReference></resource></entry><entry><fullUrl value="urn:uuid:16cf239a-a654-436c-a14d-72ef1fe6ea2c" /><resource><Practitioner><id value="16cf239a-a654-436c-a14d-72ef1fe6ea2c" /><meta><profile value="https://fhir.hl7.org.uk/StructureDefinition/CareConnect-Practitioner-1" /></meta><name><family value="Gulliver" /><given value="Leticia" /></name><telecom><system value="email" /><value value="leticia.gulliver@nhs.net" /></telecom><telecom><system value="phone" /><value value="01911223344" /></telecom><practitionerRole><role><coding><system value="https://fhir.hl7.org.uk/CareConnect-SDSJobRoleName-1" /><code value="R8003" /><display value="Health Professional Access Role" /></coding><text value="Discharge co-ordinator" /></role></practitionerRole></Practitioner></resource></entry><entry><fullUrl value="urn:uuid:a94a119f-c6ce-4566-882c-4dd21bc600ef" /><resource><Patient><id value="a94a119f-c6ce-4566-882c-4dd21bc600ef" /><meta><profile value="https://fhir.hl7.org.uk/StructureDefinition/CareConnect-Patient-1" /></meta><identifier><extension url="https://fhir.hl7.org.uk/StructureDefinition/Extension-CareConnect-NHSNumberVerificationStatus-1"><valueCodeableConcept><coding><system value="https://fhir.hl7.org.uk/CareConnect-NHSNumberVerificationStatus-1" /><code value="01" /><display value="Number present and verified" /></coding></valueCodeableConcept></extension><system value="https://fhir.nhs.uk/Id/nhs-number" /><value value="9413946000" /></identifier><identifier><system value="https://fhir.nhs.uk/Id/local-patient-identifier" /><value value="A1234521" /></identifier><name><use value="usual" /><family value="Jones" /><given value="Barry" /></name><gender value="male" /><birthDate value="1941-11-01" /><address><line value="The Old Lodge" /><line value="1 Little Street" /><line value="Chapeltown" /><city value="Leeds" /><district value="West Yorkshire" /><postalCode value="LS6 1UR" /></address></Patient></resource></entry><entry><fullUrl value="urn:uuid:49823cfd-bb1d-4a71-9d87-3a6817e02818" /><resource><Practitioner><id value="49823cfd-bb1d-4a71-9d87-3a6817e02818" /><meta><profile value="https://fhir.hl7.org.uk/StructureDefinition/CareConnect-Practitioner-1" /></meta><name><family value="Jones" /><given value="Lee" /></name><telecom><system value="email" /><value value="lee.jones@nhs.net" /></telecom><telecom><system value="phone" /><value value="0191223888" /></telecom><practitionerRole><role><coding><system value="https://fhir.hl7.org.uk/CareConnect-SDSJobRoleName-1" /><code value="R1340" /><display value="Approved Social Worker" /></coding></role></practitionerRole></Practitioner></resource></entry><entry><fullUrl value="urn:uuid:7b8732d6-7e31-4212-9bb4-b140323c2711" /><resource><Organization><id value="7b8732d6-7e31-4212-9bb4-b140323c2711" /><meta><profile value="https://fhir.hl7.org.uk/StructureDefinition/CareConnect-Organization-1" /></meta><identifier><system value="https://fhir.nhs.uk/Id/ods-organization-code" /><value value="V396BB" /></identifier><type><coding><system value="http://hl7.org/fhir/organization-type" /><code value="govt" /><display value="Government" /></coding></type><name value="Hebburn Council" /></Organization></resource></entry><entry><fullUrl value="urn:uuid:c719555e-f7e0-4ac6-b633-016450072cc5" /><resource><Binary><id value="c719555e-f7e0-4ac6-b633-016450072cc5" /><meta><profile value="https://fhir.nhs.uk/StructureDefinition/ITK-Binary-1" /></meta><contentType value="application/pdf" /><content value="" /></Binary></resource></entry></Bundle></resource></entry></Bundle>