<Bundle xmlns="http://hl7.org/fhir"><id value="b574fc18-5af6-11e6-8b77-86f30ca893d3" /><meta><profile value="https://fhir.nhs.uk/StructureDefinition/adw-message-bundle-1" /></meta><type value="message" /><entry><resource><MessageHeader><id value="19db5f65-1bad-4ce1-be05-92ff79ab1c8f" /><meta><profile value="https://fhir.nhs.uk/StructureDefinition/adw-discharge-notice-accept-response-message-header-1" /></meta><timestamp value="2016-07-25T13:30:00+00:00" /><event><system value="https://fhir.nhs.uk/ValueSet/adw-message-event-1" /><code value="975821000000109" /></event><response><identifier value="19db5f65-1bad-4ce1-be05-92ff79ab1c8f" /><code value="ok" /></response><source><name value="Local Authority Sending System" /><endpoint value="urn:nhs-uk:addressing:ods:V396BB" /></source><destination><name value="Hospital Receiving System" /><endpoint value="urn:nhs-uk:addressing:ods:RFM8C2" /></destination><author><reference value="Practitioner/6babc18b-9f20-4fb1-ba0d-d4e3ae2c7cc7" /></author><receiver><reference value="Practitioner/49edc68d-cb09-49c9-8edf-285e931042ce" /></receiver><responsible><reference value="Organization/dafc0a1e-e120-4ba7-b638-0ce50a018146" /></responsible><reason><coding><system value="https://fhir.nhs.uk/ValueSet/adw-assessment-notice-accept-reason-1" /><code value="OFT" /><display value="Other - Free Text" /></coding><text value="Patient from Leeds." /></reason><data><reference value="ReferralRequest/076a300f-5234-4309-95eb-9a64714bbb06" /></data></MessageHeader></resource></entry><entry><resource><ReferralRequest><id value="076a300f-5234-4309-95eb-9a64714bbb06" /><meta><profile value="https://fhir.nhs.uk/StructureDefinition/adw-referral-request-accepted-1" /></meta><status value="accepted" /><identifier><value value="311fcae7-32a7-4a8e-a15c-eebae3a246b9" /></identifier><patient><reference value="Patient/08fc7a07-394a-4948-a7b0-e0a87c77b231" /></patient><requester><reference value="Practitioner/49edc68d-cb09-49c9-8edf-285e931042ce" /></requester><recipient><reference value="Organization/41e0fd49-d1e5-422a-b9ba-643e00a541a4" /></recipient><encounter><reference value="Encounter/2a1def1b-497a-4621-9397-87754a63e4e5" /></encounter></ReferralRequest></resource></entry><entry><resource><Patient><id value="08fc7a07-394a-4948-a7b0-e0a87c77b231" /><meta><profile value="https://fhir.hl7.org.uk/StructureDefinition/CareConnect-Patient-1" /></meta><identifier><system value="https://fhir.nhs.uk/Id/nhs-number" /><value value="9413946000" /></identifier><identifier><system value="https://fhir.nhs.uk/Id/local-patient-identifier" /><value value="A1234521" /><assigner><reference value="Organization/148eaefb-6dd0-4848-b13d-317bee9f308f" /></assigner></identifier><name><use value="usual" /><family value="Jones" /><given value="Barry" /></name><gender value="male" /><birthDate value="1941-11-01" /></Patient></resource></entry><entry><resource><Practitioner><id value="49edc68d-cb09-49c9-8edf-285e931042ce" /><meta><profile value="https://fhir.hl7.org.uk/StructureDefinition/CareConnect-Practitioner-1" /></meta><name><family value="Gulliver" /><given value="Leticia" /></name><telecom><system value="email" /><value value="leticia.gulliver@nhs.net" /></telecom><telecom><system value="phone" /><value value="0191223344" /></telecom><practitionerRole><managingOrganization><reference value="Organization/148eaefb-6dd0-4848-b13d-317bee9f308f" /></managingOrganization><role><coding><system value="https://fhir.nhs.uk/ValueSet/job-role-name-1" /><code value="NR2060" /><display value="Discharge coordinator" /></coding><text value="Hospital Liaison" /></role></practitionerRole></Practitioner></resource></entry><entry><resource><Practitioner><id value="6babc18b-9f20-4fb1-ba0d-d4e3ae2c7cc7" /><meta><profile value="https://fhir.hl7.org.uk/StructureDefinition/CareConnect-Practitioner-1" /></meta><name><family value="Jones" /><given value="Lee" /></name><telecom><system value="email" /><value value="lee.jones@nhs.net" /></telecom><telecom><system value="phone" /><value value="0191223888" /></telecom><practitionerRole><managingOrganization><reference value="Organization/41e0fd49-d1e5-422a-b9ba-643e00a541a4" /></managingOrganization><role><coding><system value="https://fhir.nhs.uk/ValueSet/job-role-name-1" /><code value="NR1340" /><display value="Approved Social Worker" /></coding><text value="Local Authority Contact (Social Worker)" /></role></practitionerRole></Practitioner></resource></entry><entry><resource><Organization><id value="148eaefb-6dd0-4848-b13d-317bee9f308f" /><meta><profile value="https://fhir.hl7.org.uk/StructureDefinition/CareConnect-Organization-1" /></meta><identifier><system value="https://fhir.nhs.uk/Id/ods-organization-code" /><value value="RFM8C2" /></identifier><type><coding><system value="http://hl7.org/fhir/ValueSet/organization-type" /><code value="prov" /><display value="Healthcare Provider" /></coding><text value="Hospital" /></type><name value="Hebburn Hospital" /></Organization></resource></entry><entry><resource><Organization><id value="dafc0a1e-e120-4ba7-b638-0ce50a018146" /><meta><profile value="https://fhir.hl7.org.uk/StructureDefinition/CareConnect-Organization-1" /></meta><identifier><system value="https://fhir.nhs.uk/Id/ods-organization-code" /><value value="V396BB" /></identifier><type><coding><system value="http://hl7.org/fhir/ValueSet/organization-type" /><code value="govt" /><display value="Government" /></coding><text value="Local Authority" /></type><name value="Hebburn Council" /></Organization></resource></entry><entry><resource><Organization><id value="41e0fd49-d1e5-422a-b9ba-643e00a541a4" /><meta><profile value="https://fhir.hl7.org.uk/StructureDefinition/CareConnect-Organization-1" /></meta><type><coding><system value="http://hl7.org/fhir/ValueSet/organization-type" /><code value="team" /><display value="Organizational team" /></coding><text value="Local Authority Social Services' Team" /></type><name value="Hebburn Social Services' Community Team" /><partOf><reference value="Organization/dafc0a1e-e120-4ba7-b638-0ce50a018146" /></partOf></Organization></resource></entry><entry><resource><Encounter><id value="2a1def1b-497a-4621-9397-87754a63e4e5" /><meta><profile value="https://fhir.nhs.uk/StructureDefinition/CareConnect-ADW-Encounter-1" /></meta><identifier><system value="urn:ietf:rfc:3986" /><value value="2562b8b6-c0db-424a-8c6b-0fa43b0d6c2f" /></identifier><status value="in-progress" /><class value="inpatient" /><patient><reference value="Patient/08fc7a07-394a-4948-a7b0-e0a87c77b231" /></patient><location><location><reference value="Location/a33f0b53-41a7-4cb6-9dc5-5fac6bee084c" /></location></location><serviceProvider><reference value="Organization/148eaefb-6dd0-4848-b13d-317bee9f308f" /></serviceProvider></Encounter></resource></entry><entry><resource><Location><id value="a33f0b53-41a7-4cb6-9dc5-5fac6bee084c" /><meta><profile value="https://fhir.hl7.org.uk/StructureDefinition/CareConnect-Location-1" /></meta><name value="Collier Ward" /><managingOrganization><reference value="Organization/148eaefb-6dd0-4848-b13d-317bee9f308f" /></managingOrganization></Location></resource></entry></Bundle>