<Bundle xmlns="http://hl7.org/fhir"><id value="a63ec43d-887f-477d-b461-80dbbb139fc6" /><meta><profile value="https://fhir.nhs.uk/StructureDefinition/ADW-Message-Bundle-1" /></meta><type value="message" /><entry><fullUrl value="urn:uuid:19db5f65-1bad-4ce1-be05-92ff79ab1c8f" /><resource><MessageHeader><id value="19db5f65-1bad-4ce1-be05-92ff79ab1c8f" /><meta><profile value="https://fhir.nhs.uk/StructureDefinition/ADW-DischargeNotice-MessageHeader-1" /></meta><timestamp value="2017-05-04T15:11:42+00:00" /><event><system value="http://snomed.info/sct" /><code value="975731000000100" /></event><source><endpoint value="urn:nhs-uk:addressing:ods:RFM8C2" /></source><destination><endpoint value="urn:nhs-uk:addressing:ods:V396BB" /></destination><author><reference value="urn:uuid:51742f1b-c5ee-435e-8dc7-9bc5a578cd1d" /></author><receiver><reference value="urn:uuid:37f35527-5169-4467-b6ad-ab147928714c" /></receiver><responsible><reference value="urn:uuid:62f20483-3d47-4e57-80e1-6c0e20fe272f" /></responsible><data><reference value="urn:uuid:8a31c448-223d-42b7-9a17-3898f0c1c143" /></data></MessageHeader></resource></entry><entry><fullUrl value="urn:uuid:8a31c448-223d-42b7-9a17-3898f0c1c143" /><resource><ReferralRequest><id value="8a31c448-223d-42b7-9a17-3898f0c1c143" /><meta><profile value="https://fhir.nhs.uk/StructureDefinition/ADW-Discharge-ReferralRequest-1" /></meta><status value="requested" /><identifier><value value="311fcae7-32a7-4a8e-a15c-eebae3a246b9" /></identifier><patient><reference value="urn:uuid:42840151-1fe1-4967-88c1-bcbd2a191243" /></patient><requester><reference value="urn:uuid:51742f1b-c5ee-435e-8dc7-9bc5a578cd1d" /></requester><recipient><reference value="urn:uuid:37f35527-5169-4467-b6ad-ab147928714c" /></recipient><encounter><reference value="urn:uuid:9abe04e9-c508-492c-94fc-349d34b85bd5" /></encounter><supportingInformation><reference value="urn:uuid:59d6a0e5-5ca1-4ab1-ac65-3790a3bee8e5" /></supportingInformation><supportingInformation><reference value="urn:uuid:83ef1145-a95a-4bc3-a0bd-0ac2a09d1c1a" /></supportingInformation></ReferralRequest></resource></entry><entry><fullUrl value="urn:uuid:9abe04e9-c508-492c-94fc-349d34b85bd5" /><resource><Encounter><id value="9abe04e9-c508-492c-94fc-349d34b85bd5" /><meta><profile value="https://fhir.nhs.uk/StructureDefinition/CareConnect-ADW-Encounter-1" /></meta><identifier><system value="https://fhir.nhs.uk/encounter-id" /><value value="2562b8b6-c0db-424a-8c6b-0fa43b0d6c2f" /></identifier><status value="in-progress" /><class value="inpatient" /><patient><reference value="urn:uuid:42840151-1fe1-4967-88c1-bcbd2a191243" /></patient><period><start value="2017-04-24" /><end value="2017-05-06" /></period><location><location><reference value="urn:uuid:64a7a96b-a259-4b39-b50a-ea36e2a0464c" /></location></location><serviceProvider><reference value="urn:uuid:c7bf094c-6581-4771-bafc-88c58e7d8fcd" /></serviceProvider></Encounter></resource></entry><entry><fullUrl value="urn:uuid:42840151-1fe1-4967-88c1-bcbd2a191243" /><resource><Patient><id value="42840151-1fe1-4967-88c1-bcbd2a191243" /><meta><profile value="https://fhir.hl7.org.uk/StructureDefinition/CareConnect-Patient-1" /></meta><identifier><extension url="https://fhir.hl7.org.uk/StructureDefinition/Extension-CareConnect-NHSNumberVerificationStatus-1"><valueCodeableConcept><coding><system value="https://fhir.hl7.org.uk/CareConnect-NHSNumberVerificationStatus-1" /><code value="01" /><display value="Number present and verified" /></coding></valueCodeableConcept></extension><system value="https://fhir.nhs.uk/Id/nhs-number" /><value value="9413946000" /></identifier><identifier><system value="https://fhir.nhs.uk/Id/local-patient-identifier" /><value value="A1234521" /><assigner><reference value="urn:uuid:c7bf094c-6581-4771-bafc-88c58e7d8fcd" /></assigner></identifier><name><use value="usual" /><family value="Jones" /><given value="Barry" /></name><gender value="male" /><birthDate value="1941-11-01" /><address><line value="The Old Lodge" /><line value="1 Little Street" /><line value="Chapeltown" /><city value="Leeds" /><district value="West Yorkshire" /><postalCode value="LS6 1UR" /></address><contact><relationship><coding><system value="https://fhir.hl7.org.uk/CareConnect-PersonRelationshipType-1" /><code value="20" /><display value="Carer" /></coding></relationship><name><use value="usual" /><family value="Bloom" /><given value="Sandra" /></name><telecom><system value="email" /><value value="Sbloom123@yahoo.com" /></telecom><telecom><system value="phone" /><value value="0113237656" /></telecom></contact></Patient></resource></entry><entry><fullUrl value="urn:uuid:51742f1b-c5ee-435e-8dc7-9bc5a578cd1d" /><resource><Practitioner><id value="51742f1b-c5ee-435e-8dc7-9bc5a578cd1d" /><meta><profile value="https://fhir.hl7.org.uk/StructureDefinition/CareConnect-Practitioner-1" /></meta><name><family value="Gulliver" /><given value="Leticia" /></name><telecom><system value="email" /><value value="leticia.gulliver@nhs.net" /></telecom><telecom><system value="phone" /><value value="01911223344" /></telecom><practitionerRole><managingOrganization><reference value="urn:uuid:c7bf094c-6581-4771-bafc-88c58e7d8fcd" /></managingOrganization><role><coding><system value="https://fhir.hl7.org.uk/CareConnect-SDSJobRoleName-1" /><code value="R8003" /><display value="Health Professional Access Role" /></coding><text value="Discharge co-ordinator" /></role></practitionerRole></Practitioner></resource></entry><entry><fullUrl value="urn:uuid:62f20483-3d47-4e57-80e1-6c0e20fe272f" /><resource><Practitioner><id value="62f20483-3d47-4e57-80e1-6c0e20fe272f" /><meta><profile value="https://fhir.hl7.org.uk/StructureDefinition/CareConnect-Practitioner-1" /></meta><name><family value="Stibbs" /><given value="Nigel" /></name><practitionerRole><managingOrganization><reference value="urn:uuid:c7bf094c-6581-4771-bafc-88c58e7d8fcd" /></managingOrganization><role><coding><system value="https://fhir.hl7.org.uk/CareConnect-SDSJobRoleName-1" /><code value="R0050" /><display value="Consultant" /></coding></role></practitionerRole></Practitioner></resource></entry><entry><fullUrl value="urn:uuid:c7bf094c-6581-4771-bafc-88c58e7d8fcd" /><resource><Organization><id value="c7bf094c-6581-4771-bafc-88c58e7d8fcd" /><meta><profile value="https://fhir.hl7.org.uk/StructureDefinition/CareConnect-Organization-1" /></meta><identifier><system value="https://fhir.nhs.uk/Id/ods-site-code" /><value value="RFM8C2" /></identifier><type><coding><system value="http://hl7.org/fhir/organization-type" /><code value="prov" /><display value="Healthcare Provider" /></coding></type><name value="Hebburn Hospital" /></Organization></resource></entry><entry><fullUrl value="urn:uuid:37f35527-5169-4467-b6ad-ab147928714c" /><resource><Organization><id value="37f35527-5169-4467-b6ad-ab147928714c" /><meta><profile value="https://fhir.hl7.org.uk/StructureDefinition/CareConnect-Organization-1" /></meta><identifier><system value="https://fhir.nhs.uk/Id/ods-organization-code" /><value value="V396BB" /></identifier><type><coding><system value="http://hl7.org/fhir/organization-type" /><code value="govt" /><display value="Government" /></coding></type><name value="Hebburn Council" /></Organization></resource></entry><entry><fullUrl value="urn:uuid:5d4c7a93-73f1-460e-93d3-da616b569228" /><resource><Organization><id value="5d4c7a93-73f1-460e-93d3-da616b569228" /><meta><profile value="https://fhir.hl7.org.uk/StructureDefinition/CareConnect-Organization-1" /></meta><type><coding><system value="http://hl7.org/fhir/organization-type" /><code value="team" /><display value="Organizational team" /></coding></type><name value="Hebburn Social Services' Community Team" /><partOf><reference value="urn:uuid:37f35527-5169-4467-b6ad-ab147928714c" /></partOf></Organization></resource></entry><entry><fullUrl value="urn:uuid:64a7a96b-a259-4b39-b50a-ea36e2a0464c" /><resource><Location><id value="64a7a96b-a259-4b39-b50a-ea36e2a0464c" /><meta><profile value="https://fhir.hl7.org.uk/StructureDefinition/CareConnect-Location-1" /></meta><name value="Collier Ward" /><managingOrganization><reference value="urn:uuid:c7bf094c-6581-4771-bafc-88c58e7d8fcd" /></managingOrganization></Location></resource></entry><entry><fullUrl value="urn:uuid:59d6a0e5-5ca1-4ab1-ac65-3790a3bee8e5" /><resource><QuestionnaireResponse><id value="59d6a0e5-5ca1-4ab1-ac65-3790a3bee8e5" /><meta><profile value="https://fhir.nhs.uk/StructureDefinition/ADW-Discharge-QuestionnaireResponse-1" /></meta><identifier><value value="fd60ffd5-3e41-4b68-aa62-37f5407d8c03" /></identifier><status value="completed" /><author><reference value="urn:uuid:51742f1b-c5ee-435e-8dc7-9bc5a578cd1d" /></author><encounter><reference value="urn:uuid:9abe04e9-c508-492c-94fc-349d34b85bd5" /></encounter><group><question><text value="Has the patient been consulted regarding the proposed discharge date?" /><answer><valueCoding><system value="https://fhir.nhs.uk/ADW-ConsultationStatus-1" /><code value="Y" /><display value="Yes" /></valueCoding></answer></question><question><text value="Has the patient's carer (if applicable) been consulted regarding the proposed discharge date?" /><answer><valueCoding><system value="https://fhir.nhs.uk/ADW-CarerConsultationStatus-1" /><code value="Y" /><display value="Yes" /></valueCoding></answer></question></group></QuestionnaireResponse></resource></entry><entry><fullUrl value="urn:uuid:83ef1145-a95a-4bc3-a0bd-0ac2a09d1c1a" /><resource><Bundle><id value="83ef1145-a95a-4bc3-a0bd-0ac2a09d1c1a" /><meta><profile value="https://fhir.nhs.uk/StructureDefinition/ITK-Document-Bundle-1" /></meta><type value="document" /><entry><fullUrl value="urn:uuid:286919ac-12ba-4469-b9fd-676ef9cdb623" /><resource><DocumentReference><id value="286919ac-12ba-4469-b9fd-676ef9cdb623" /><meta><profile value="https://fhir.nhs.uk/StructureDefinition/ITK-DocumentReference-1" /></meta><extension url="https://fhir.nhs.uk/StructureDefinition/Extension-ITK-InformationRecipient-1"><valueReference><reference value="urn:uuid:f7ae2cda-28fe-4a65-af46-b2ef1c5593cc" /></valueReference></extension><extension url="https://fhir.nhs.uk/StructureDefinition/Extension-ITK-CareSettingType-1"><valueCodeableConcept><coding><system value="http://snomed.info/sct" /><code value="408458006" /><display value="Specialist multidisciplinary team (qualifier value)" /></coding></valueCodeableConcept></extension><subject><reference value="urn:uuid:ce6d1ce3-7b26-4610-9e4a-43a0f5491a18" /></subject><type><coding><system value="http://snomed.info/sct" /><code value="820101000000109" /><display value="Social services assessment record (record artifact)" /></coding></type><author><reference value="urn:uuid:c6269f37-f98b-40e8-893e-a149a94473ba" /></author><custodian><reference value="urn:uuid:4b708a70-ef5c-414f-bad3-9f02f19a9241" /></custodian><indexed value="2017-04-17T10:00:00+00:00" /><status value="current" /><docStatus><coding><system value="http://hl7.org/fhir/composition-status" /><code value="final" /><display value="Final" /></coding></docStatus><content><attachment><url value="urn:uuid:11507dfa-a3a2-4c6f-9ef7-9bc77955daae" /></attachment></content></DocumentReference></resource></entry><entry><fullUrl value="urn:uuid:f7ae2cda-28fe-4a65-af46-b2ef1c5593cc" /><resource><Organization><id value="f7ae2cda-28fe-4a65-af46-b2ef1c5593cc" /><meta><profile value="https://fhir.hl7.org.uk/StructureDefinition/CareConnect-Organization-1" /></meta><identifier><system value="https://fhir.nhs.uk/Id/ods-organization-code" /><value value="V396BB" /></identifier><type><coding><system value="http://hl7.org/fhir/organization-type" /><code value="govt" /><display value="Government" /></coding></type><name value="Hebburn Council" /></Organization></resource></entry><entry><fullUrl value="urn:uuid:ce6d1ce3-7b26-4610-9e4a-43a0f5491a18" /><resource><Patient><id value="ce6d1ce3-7b26-4610-9e4a-43a0f5491a18" /><meta><profile value="https://fhir.hl7.org.uk/StructureDefinition/CareConnect-Patient-1" /></meta><identifier><extension url="https://fhir.hl7.org.uk/StructureDefinition/Extension-CareConnect-NHSNumberVerificationStatus-1"><valueCodeableConcept><coding><system value="https://fhir.hl7.org.uk/CareConnect-NHSNumberVerificationStatus-1" /><code value="01" /><display value="Number present and verified" /></coding></valueCodeableConcept></extension><system value="https://fhir.nhs.uk/Id/nhs-number" /><value value="9413946000" /></identifier><identifier><system value="https://fhir.nhs.uk/Id/local-patient-identifier" /><value value="A1234521" /></identifier><name><use value="usual" /><family value="Jones" /><given value="Barry" /></name><gender value="male" /><birthDate value="1941-11-01" /><address><line value="The Old Lodge" /><line value="1 Little Street" /><line value="Chapeltown" /><city value="Leeds" /><district value="West Yorkshire" /><postalCode value="LS6 1UR" /></address></Patient></resource></entry><entry><fullUrl value="urn:uuid:c6269f37-f98b-40e8-893e-a149a94473ba" /><resource><Practitioner><id value="c6269f37-f98b-40e8-893e-a149a94473ba" /><meta><profile value="https://fhir.hl7.org.uk/StructureDefinition/CareConnect-Practitioner-1" /></meta><name><family value="Gulliver" /><given value="Leticia" /></name><telecom><system value="email" /><value value="leticia.gulliver@nhs.net" /></telecom><telecom><system value="phone" /><value value="01911223344" /></telecom><practitionerRole><role><coding><system value="https://fhir.hl7.org.uk/CareConnect-SDSJobRoleName-1" /><code value="R8003" /><display value="Health Professional Access Role" /></coding><text value="Discharge co-ordinator" /></role></practitionerRole></Practitioner></resource></entry><entry><fullUrl value="urn:uuid:4b708a70-ef5c-414f-bad3-9f02f19a9241" /><resource><Organization><id value="4b708a70-ef5c-414f-bad3-9f02f19a9241" /><meta><profile value="https://fhir.hl7.org.uk/StructureDefinition/CareConnect-Organization-1" /></meta><identifier><system value="https://fhir.nhs.uk/Id/ods-site-code" /><value value="RFM8C2" /></identifier><type><coding><system value="http://hl7.org/fhir/organization-type" /><code value="prov" /><display value="Healthcare Provider" /></coding></type><name value="Hebburn Hospital" /></Organization></resource></entry><entry><fullUrl value="urn:uuid:11507dfa-a3a2-4c6f-9ef7-9bc77955daae" /><resource><Binary><id value="11507dfa-a3a2-4c6f-9ef7-9bc77955daae" /><meta><profile value="https://fhir.nhs.uk/StructureDefinition/ITK-Binary-1" /></meta><contentType value="application/pdf" /><content value="" /></Binary></resource></entry></Bundle></resource></entry></Bundle>