<Bundle xmlns="http://hl7.org/fhir"><id value="6130a4ff-39d9-41b6-9b4f-424b4d7122cc" /><meta><profile value="https://fhir.nhs.uk/StructureDefinition/ADW-Message-Bundle-1" /></meta><type value="message" /><entry><fullUrl value="urn:uuid:236103d8-ea79-42d5-8078-2e9b0ed4d517" /><resource><MessageHeader><id value="236103d8-ea79-42d5-8078-2e9b0ed4d517" /><meta><profile value="https://fhir.nhs.uk/StructureDefinition/ADW-WithdrawalNoticeAcceptResponse-MessageHeader-1" /></meta><timestamp value="2017-05-09T15:16:33+00:00" /><event><system value="http://snomed.info/sct" /><code value="1025651000000109" /></event><response><identifier value="5bfa2a2e-923b-440d-82d6-38e24b666be6" /><code value="ok" /></response><source><endpoint value="urn:nhs-uk:addressing:ods:V396BB" /></source><destination><endpoint value="urn:nhs-uk:addressing:ods:RFM8C2" /></destination><author><reference value="urn:uuid:4d40bf5b-03f6-4450-9cd3-96bba64f96f1" /></author><receiver><reference value="urn:uuid:f439f6fe-a1b2-45b6-9180-4d183adfc848" /></receiver><responsible><reference value="urn:uuid:1903db23-738c-4ba7-95ba-04f0064fbe70" /></responsible><reason><coding><system value="https://fhir.nhs.uk/ADW-NoticeAcceptReason-1" /><code value="OFT" /><display value="Other - Free Text" /></coding><text value="Assessment currently not required as patient's condition has deteriorated and he remains in hospital." /></reason><data><reference value="urn:uuid:247f5ad9-e256-4d03-864b-e8a67cec8584" /></data></MessageHeader></resource></entry><entry><fullUrl value="urn:uuid:247f5ad9-e256-4d03-864b-e8a67cec8584" /><resource><ReferralRequest><id value="247f5ad9-e256-4d03-864b-e8a67cec8584" /><meta><profile value="https://fhir.nhs.uk/StructureDefinition/ADW-Cancel-ReferralRequest-1" /></meta><status value="cancelled" /><identifier><value value="311fcae7-32a7-4a8e-a15c-eebae3a246b9" /></identifier><patient><reference value="urn:uuid:67cdb5be-f770-4858-afe8-ecbd3c3d081e" /></patient><requester><reference value="urn:uuid:f439f6fe-a1b2-45b6-9180-4d183adfc848" /></requester><recipient><reference value="urn:uuid:6cd9fafa-96ac-43fd-bda2-c4da68b19bf7" /></recipient><encounter><reference value="urn:uuid:29069f89-9ff7-4b3f-b5d3-2d99fa908c5c" /></encounter></ReferralRequest></resource></entry><entry><fullUrl value="urn:uuid:29069f89-9ff7-4b3f-b5d3-2d99fa908c5c" /><resource><Encounter><id value="29069f89-9ff7-4b3f-b5d3-2d99fa908c5c" /><meta><profile value="https://fhir.nhs.uk/StructureDefinition/CareConnect-ADW-Encounter-1" /></meta><identifier><system value="https://fhir.nhs.uk/encounter-id" /><value value="2562b8b6-c0db-424a-8c6b-0fa43b0d6c2f" /></identifier><status value="in-progress" /><class value="inpatient" /><patient><reference value="urn:uuid:67cdb5be-f770-4858-afe8-ecbd3c3d081e" /></patient><location><location><reference value="urn:uuid:44d13c23-9ae2-4a02-aa06-77ffb0cda05d" /></location></location><serviceProvider><reference value="urn:uuid:033d678e-4c00-4769-a346-2e9456362812" /></serviceProvider></Encounter></resource></entry><entry><fullUrl value="urn:uuid:67cdb5be-f770-4858-afe8-ecbd3c3d081e" /><resource><Patient><id value="67cdb5be-f770-4858-afe8-ecbd3c3d081e" /><meta><profile value="https://fhir.hl7.org.uk/StructureDefinition/CareConnect-Patient-1" /></meta><identifier><extension url="https://fhir.hl7.org.uk/StructureDefinition/Extension-CareConnect-NHSNumberVerificationStatus-1"><valueCodeableConcept><coding><system value="https://fhir.hl7.org.uk/CareConnect-NHSNumberVerificationStatus-1" /><code value="01" /><display value="Number present and verified" /></coding></valueCodeableConcept></extension><system value="https://fhir.nhs.uk/Id/nhs-number" /><value value="9413946000" /></identifier><identifier><system value="https://fhir.nhs.uk/Id/local-patient-identifier" /><value value="A1234521" /><assigner><reference value="urn:uuid:033d678e-4c00-4769-a346-2e9456362812" /></assigner></identifier><name><use value="usual" /><family value="Jones" /><given value="Barry" /></name><gender value="male" /><birthDate value="1941-11-01" /></Patient></resource></entry><entry><fullUrl value="urn:uuid:f439f6fe-a1b2-45b6-9180-4d183adfc848" /><resource><Practitioner><id value="f439f6fe-a1b2-45b6-9180-4d183adfc848" /><meta><profile value="https://fhir.hl7.org.uk/StructureDefinition/CareConnect-Practitioner-1" /></meta><name><family value="Gulliver" /><given value="Leticia" /></name><telecom><system value="email" /><value value="leticia.gulliver@nhs.net" /></telecom><telecom><system value="phone" /><value value="01911223344" /></telecom><practitionerRole><managingOrganization><reference value="urn:uuid:033d678e-4c00-4769-a346-2e9456362812" /></managingOrganization><role><coding><system value="https://fhir.hl7.org.uk/CareConnect-SDSJobRoleName-1" /><code value="R8003" /><display value="Health Professional Access Role" /></coding><text value="Discharge co-ordinator" /></role></practitionerRole></Practitioner></resource></entry><entry><fullUrl value="urn:uuid:4d40bf5b-03f6-4450-9cd3-96bba64f96f1" /><resource><Practitioner><id value="4d40bf5b-03f6-4450-9cd3-96bba64f96f1" /><meta><profile value="https://fhir.hl7.org.uk/StructureDefinition/CareConnect-Practitioner-1" /></meta><name><family value="Jones" /><given value="Lee" /></name><telecom><system value="email" /><value value="lee.jones@nhs.net" /></telecom><telecom><system value="phone" /><value value="0191223888" /></telecom><practitionerRole><managingOrganization><reference value="urn:uuid:6cd9fafa-96ac-43fd-bda2-c4da68b19bf7" /></managingOrganization><role><coding><system value="https://fhir.hl7.org.uk/CareConnect-SDSJobRoleName-1" /><code value="R1340" /><display value="Approved Social Worker" /></coding></role></practitionerRole></Practitioner></resource></entry><entry><fullUrl value="urn:uuid:033d678e-4c00-4769-a346-2e9456362812" /><resource><Organization><id value="033d678e-4c00-4769-a346-2e9456362812" /><meta><profile value="https://fhir.hl7.org.uk/StructureDefinition/CareConnect-Organization-1" /></meta><identifier><system value="https://fhir.nhs.uk/Id/ods-site-code" /><value value="RFM8C2" /></identifier><type><coding><system value="http://hl7.org/fhir/organization-type" /><code value="prov" /><display value="Healthcare Provider" /></coding></type><name value="Hebburn Hospital" /></Organization></resource></entry><entry><fullUrl value="urn:uuid:1903db23-738c-4ba7-95ba-04f0064fbe70" /><resource><Organization><id value="1903db23-738c-4ba7-95ba-04f0064fbe70" /><meta><profile value="https://fhir.hl7.org.uk/StructureDefinition/CareConnect-Organization-1" /></meta><identifier><system value="https://fhir.nhs.uk/Id/ods-organization-code" /><value value="V396BB" /></identifier><type><coding><system value="http://hl7.org/fhir/organization-type" /><code value="govt" /><display value="Government" /></coding></type><name value="Hebburn Council" /></Organization></resource></entry><entry><fullUrl value="urn:uuid:6cd9fafa-96ac-43fd-bda2-c4da68b19bf7" /><resource><Organization><id value="6cd9fafa-96ac-43fd-bda2-c4da68b19bf7" /><meta><profile value="https://fhir.hl7.org.uk/StructureDefinition/CareConnect-Organization-1" /></meta><type><coding><system value="http://hl7.org/fhir/organization-type" /><code value="team" /><display value="Organizational team" /></coding></type><name value="Hebburn Social Services' Community Team" /><partOf><reference value="urn:uuid:1903db23-738c-4ba7-95ba-04f0064fbe70" /></partOf></Organization></resource></entry><entry><fullUrl value="urn:uuid:44d13c23-9ae2-4a02-aa06-77ffb0cda05d" /><resource><Location><id value="44d13c23-9ae2-4a02-aa06-77ffb0cda05d" /><meta><profile value="https://fhir.hl7.org.uk/StructureDefinition/CareConnect-Location-1" /></meta><name value="Collier Ward" /><managingOrganization><reference value="urn:uuid:033d678e-4c00-4769-a346-2e9456362812" /></managingOrganization></Location></resource></entry></Bundle>